Folder: xrd/XRD_Tool/log (part 4)

File: LDA_sample_name_56789_Psi-0_20180623-130904.txt
138.0000     131
138.0800      89
138.1600      42
138.2400      88
138.3200      84
138.4000      87
138.4800      68
138.5600      64
138.6400      79
138.7200      83
138.8000      58
138.8800      88
138.9600      99
139.0400      73
139.1200     116
139.2000      69
139.2800      88
139.3600      57
139.4400      80
139.5200      88
139.6000      68
139.6800     120
139.7600      91
139.8400     120
139.9200     111
140.0000     119
140.0800      92
140.1600      95
140.2400      96
140.3200      66
140.4000      59
140.4800      89
140.5600      84
140.6400      80
140.7200     115
140.8000     149
140.8800      92
140.9600      93
141.0400      99
141.1200      68
141.2000      75
141.2800      85
141.3600      99
141.4400     130
141.5200      99
141.6000     134
141.6800     127
141.7600      97
141.8400     119
141.9200      78
142.0000     120
142.0800     145
142.1600     103
142.2400      97
142.3200      86
142.4000     184
142.4800     135
142.5600     111
142.6400     131
142.7200     151
142.8000     147
142.8800     113
142.9600     106
143.0400     143
143.1200      94
143.2000     173
143.2800     164
143.3600     117
143.4400      85
143.5200     104
143.6000     121
143.6800     104
143.7600      81
143.8400      94
143.9200      90
144.0000     146
144.0800     134
144.1600     113
144.2400      79
144.3200     113
144.4000      92
144.4800      92
144.5600     111
144.6400      89
144.7200      93
144.8000     101
144.8800     108
144.9600     116
145.0400     114
145.1200      93
145.2000      86
145.2800      98
145.3600     110
145.4400     102
145.5200      93
145.6000     108
145.6800     141
145.7600     104
145.8400      62
145.9200      43
146.0000      66
146.0800      97
146.1600      69
146.2400      89
146.3200      71
146.4000      50
146.4800      92
146.5600      71
146.6400      46
146.7200     117
146.8000      65
146.8800      78
146.9600      80
147.0400     117
147.1200      82
147.2000      88
147.2800      95
147.3600      98
147.4400      96
147.5200      68
147.6000     113
147.6800      82
147.7600     104
147.8400      83
147.9200      47
148.0000     134
148.0800      50
148.1600      94
148.2400      86
148.3200      74
148.4000      88
148.4800      94
148.5600      70
148.6400     111
148.7200     109
148.8000      67
148.8800      82
148.9600      74
149.0400      52
149.1200     120
149.2000     104
149.2800      98
149.3600     110
149.4400      68
149.5200      69
149.6000      98
149.6800     102
149.7600      76
149.8400      98
149.9200     110
150.0000      73
150.0800     122
150.1600      73
150.2400      58
150.3200      90
150.4000     113
150.4800     106
150.5600     129
150.6400      70
150.7200      83
150.8000      66
150.8800      69
150.9600      73
151.0400      74
151.1200      77
151.2000      91
151.2800      75
151.3600     124
151.4400      78
151.5200      59
151.6000      98
151.6800      98
151.7600      97
151.8400      80
151.9200     111
152.0000      95
152.0800     119
152.1600     108
152.2400     107
152.3200      45
152.4000     110
152.4800      83
152.5600      32
152.6400      50
152.7200      45
152.8000      63
152.8800      86
152.9600      80
153.0400      99
153.1200     111
153.2000      84
153.2800      81
153.3600      85
153.4400      52
153.5200     107
153.6000      85
153.6800       3
153.7600      78
153.8400     128
153.9200      79
154.0000      97
154.0800      68
154.1600     108
154.2400      72
154.3200      85
154.4000      85
154.4800      51
154.5600      12
154.6400      96
154.7200      42
154.8000      52
154.8800      66
154.9600      82
155.0400     106
155.1200      53
155.2000      52
155.2800      76
155.3600      85
155.4400      62
155.5200      52
155.6000      85
155.6800      92
155.7600      52
155.8400      58
155.9200      64
156.0000      61
156.0800      55
156.1600      80
156.2400      81
156.3200      70
156.4000      40
156.4800      99
156.5600      48
156.6400      78
156.7200      83
156.8000      33
156.8800      55
156.9600      67
157.0400      67
157.1200      90
157.2000      76
157.2800      73
157.3600      67
157.4400      59
157.5200      58
157.6000     119
157.6800      48
157.7600      27
157.8400      82
157.9200      58
158.0000     109
158.0800      22
158.1600      70
158.2400      63
158.3200      60
158.4000      66
158.4800      56
158.5600      30
158.6400      66
158.7200      49
158.8000      44
158.8800      87
158.9600      60
159.0400      71
159.1200      25
159.2000      49
159.2800      27
159.3600      67
159.4400      50
159.5200      74
159.6000     121
159.6800      72
159.7600      83
159.8400      18
159.9200      32
160.0000      38
160.0800      81
160.1600      90
160.2400      77
160.3200      60
160.4000      68
160.4800      43
160.5600      67
160.6400      34
160.7200      51
160.8000      17
160.8800      54
160.9600      86
161.0400      14
161.1200      69
161.2000      21
161.2800      22
161.3600      63
161.4400      60
161.5200      19
161.6000      54
161.6800      58
161.7600      78
161.8400      29
161.9200      18
161.9800      83

File: LDA_sample_name_56789_Psi-0_20180623-131331.txt
138.0000     551
138.0800     517
138.1600     532
138.2400     582
138.3200     729
138.4000     643
138.4800     737
138.5600     783
138.6400     777
138.7200     776
138.8000     815
138.8800     764
138.9600     825
139.0400     851
139.1200     876
139.2000     775
139.2800     948
139.3600     890
139.4400     919
139.5200     882
139.6000     972
139.6800     867
139.7600     988
139.8400     954
139.9200    1050
140.0000     973
140.0800    1070
140.1600    1116
140.2400     937
140.3200    1027
140.4000     935
140.4800     944
140.5600     902
140.6400     972
140.7200     967
140.8000     818
140.8800     833
140.9600     822
141.0400     879
141.1200     836
141.2000     811
141.2800     742
141.3600     847
141.4400     714
141.5200     710
141.6000     639
141.6800     654
141.7600     739
141.8400     717
141.9200     643
142.0000     741
142.0800     643
142.1600     598
142.2400     617
142.3200     654
142.4000     582
142.4800     616
142.5600     661
142.6400     447
142.7200     592
142.8000     496
142.8800     532
142.9600     467
143.0400     536
143.1200     472
143.2000     487
143.2800     403
143.3600     475
143.4400     398
143.5200     417
143.6000     371
143.6800     396
143.7600     343
143.8400     357
143.9200     364
144.0000     382
144.0800     336
144.1600     434
144.2400     301
144.3200     301
144.4000     362
144.4800     348
144.5600     252
144.6400     292
144.7200     295
144.8000     287
144.8800     298
144.9600     324
145.0400     290
145.1200     209
145.2000     277
145.2800     257
145.3600     282
145.4400     262
145.5200     243
145.6000     236
145.6800     267
145.7600     253
145.8400     208
145.9200     250
146.0000     206
146.0800     259
146.1600     245
146.2400     172
146.3200     273
146.4000     231
146.4800     214
146.5600     167
146.6400     176
146.7200     174
146.8000     149
146.8800     233
146.9600     211
147.0400     219
147.1200     223
147.2000     218
147.2800     200
147.3600     226
147.4400     235
147.5200     241
147.6000     214
147.6800     237
147.7600     205
147.8400     157
147.9200     214
148.0000     236
148.0800     176
148.1600     188
148.2400     177
148.3200     172
148.4000     200
148.4800     220
148.5600     174
148.6400     167
148.7200     217
148.8000     202
148.8800     218
148.9600     130
149.0400     179
149.1200     175
149.2000     195
149.2800     178
149.3600     157
149.4400     172
149.5200     189
149.6000     183
149.6800     216
149.7600     124
149.8400     193
149.9200     218
150.0000     136
150.0800     240
150.1600     179
150.2400     165
150.3200     178
150.4000     128
150.4800     128
150.5600     196
150.6400     194
150.7200     138
150.8000     176
150.8800     139
150.9600     122
151.0400     166
151.1200     145
151.2000     177
151.2800     161
151.3600     102
151.4400     153
151.5200     152
151.6000     176
151.6800     151
151.7600     146
151.8400     126
151.9200     157
152.0000     179
152.0800     148
152.1600     182
152.2400     168
152.3200     168
152.4000     190
152.4800     165
152.5600     162
152.6400     119
152.7200     182
152.8000     191
152.8800     153
152.9600     133
153.0400     181
153.1200     150
153.2000     225
153.2800     171
153.3600     154
153.4400     169
153.5200     150
153.6000     153
153.6800     168
153.7600     170
153.8400     145
153.9200     175
154.0000     183
154.0800     176
154.1600     139
154.2400     145
154.3200     102
154.4000     167
154.4800      88
154.5600      81
154.6400     155
154.7200     149
154.8000     123
154.8800     127
154.9600     119
155.0400     138
155.1200      56
155.2000     157
155.2800     125
155.3600     125
155.4400     154
155.5200     118
155.6000     146
155.6800     156
155.7600     159
155.8400     112
155.9200      72
156.0000     101
156.0800     150
156.1600     131
156.2400      82
156.3200     150
156.4000     150
156.4800     174
156.5600     146
156.6400     182
156.7200      54
156.8000      73
156.8800     108
156.9600     108
157.0400     106
157.1200     125
157.2000     133
157.2800      51
157.3600      70
157.4400      73
157.5200      88
157.6000     157
157.6800     142
157.7600     204
157.8400     157
157.9200     114
158.0000     142
158.0800     138
158.1600      91
158.2400     151
158.3200      92
158.4000     113
158.4800     106
158.5600     130
158.6400     121
158.7200      85
158.8000     154
158.8800     110
158.9600     102
159.0400      70
159.1200     108
159.2000     116
159.2800     136
159.3600      80
159.4400      76
159.5200     120
159.6000     172
159.6800      51
159.7600      96
159.8400     104
159.9200     144
160.0000     116
160.0800     141
160.1600      95
160.2400     106
160.3200     108
160.4000     141
160.4800     106
160.5600     128
160.6400      53
160.7200      80
160.8000      72
160.8800      74
160.9600     102
161.0400      93
161.1200     109
161.2000     156
161.2800      55
161.3600      86
161.4400      87
161.5200      69
161.6000     105
161.6800     146
161.7600      69
161.8400      79
161.9200      84
161.9800     147

File: LDA_sample_name_56789_Psi-0_20180623-131434.txt
138.0000     637
138.0800     543
138.1600     611
138.2400     568
138.3200     652
138.4000     657
138.4800     773
138.5600     728
138.6400     790
138.7200     690
138.8000     825
138.8800     787
138.9600     798
139.0400     747
139.1200     875
139.2000     815
139.2800     867
139.3600     929
139.4400     987
139.5200    1001
139.6000    1061
139.6800     967
139.7600     895
139.8400     961
139.9200    1014
140.0000    1016
140.0800    1001
140.1600     872
140.2400    1000
140.3200     976
140.4000     953
140.4800     884
140.5600     848
140.6400     874
140.7200     907
140.8000     885
140.8800     912
140.9600     900
141.0400     830
141.1200     838
141.2000     916
141.2800     837
141.3600     749
141.4400     754
141.5200     701
141.6000     785
141.6800     653
141.7600     718
141.8400     727
141.9200     702
142.0000     575
142.0800     635
142.1600     694
142.2400     597
142.3200     662
142.4000     568
142.4800     608
142.5600     590
142.6400     611
142.7200     565
142.8000     580
142.8800     564
142.9600     487
143.0400     499
143.1200     473
143.2000     502
143.2800     419
143.3600     453
143.4400     386
143.5200     432
143.6000     390
143.6800     385
143.7600     410
143.8400     393
143.9200     335
144.0000     283
144.0800     304
144.1600     382
144.2400     376
144.3200     390
144.4000     279
144.4800     288
144.5600     291
144.6400     314
144.7200     325
144.8000     276
144.8800     321
144.9600     293
145.0400     270
145.1200     298
145.2000     243
145.2800     260
145.3600     271
145.4400     304
145.5200     214
145.6000     298
145.6800     317
145.7600     212
145.8400     277
145.9200     254
146.0000     204
146.0800     240
146.1600     153
146.2400     223
146.3200     242
146.4000     189
146.4800     223
146.5600     218
146.6400     208
146.7200     208
146.8000     200
146.8800     200
146.9600     197
147.0400     210
147.1200     147
147.2000     184
147.2800     242
147.3600     191
147.4400     188
147.5200     218
147.6000     260
147.6800     208
147.7600     174
147.8400     240
147.9200     241
148.0000     243
148.0800     137
148.1600     190
148.2400     174
148.3200     218
148.4000     137
148.4800     176
148.5600     179
148.6400     226
148.7200     201
148.8000     236
148.8800     189
148.9600     244
149.0400     240
149.1200     210
149.2000     252
149.2800     185
149.3600     149
149.4400     231
149.5200     209
149.6000     160
149.6800      97
149.7600     201
149.8400     199
149.9200     159
150.0000     154
150.0800     195
150.1600     171
150.2400     194
150.3200     153
150.4000     146
150.4800     145
150.5600     169
150.6400     207
150.7200     192
150.8000     188
150.8800     175
150.9600      91
151.0400     158
151.1200     155
151.2000     122
151.2800     153
151.3600     180
151.4400     210
151.5200     203
151.6000     153
151.6800     137
151.7600     173
151.8400     175
151.9200     183
152.0000     128
152.0800     146
152.1600      74
152.2400     181
152.3200     221
152.4000     141
152.4800     130
152.5600     150
152.6400     106
152.7200     143
152.8000     187
152.8800     141
152.9600     150
153.0400     170
153.1200     157
153.2000     136
153.2800     138
153.3600     178
153.4400     192
153.5200     114
153.6000     169
153.6800     141
153.7600     137
153.8400     140
153.9200     192
154.0000     111
154.0800      86
154.1600     149
154.2400     118
154.3200      97
154.4000     106
154.4800     115
154.5600     154
154.6400     151
154.7200     176
154.8000     117
154.8800     109
154.9600      96
155.0400     164
155.1200     138
155.2000     152
155.2800     154
155.3600     120
155.4400     139
155.5200      68
155.6000     156
155.6800     174
155.7600     165
155.8400     218
155.9200     104
156.0000     108
156.0800     122
156.1600     196
156.2400      78
156.3200     167
156.4000     123
156.4800     113
156.5600     139
156.6400     131
156.7200      83
156.8000     115
156.8800     148
156.9600      24
157.0400      82
157.1200      79
157.2000      72
157.2800      99
157.3600     154
157.4400      72
157.5200      95
157.6000     135
157.6800     115
157.7600      89
157.8400     146
157.9200     125
158.0000     117
158.0800     116
158.1600     114
158.2400     104
158.3200     168
158.4000     145
158.4800      89
158.5600     131
158.6400     129
158.7200     108
158.8000     104
158.8800     170
158.9600     149
159.0400      87
159.1200     184
159.2000      76
159.2800     111
159.3600     122
159.4400     137
159.5200     119
159.6000     121
159.6800     114
159.7600      70
159.8400     120
159.9200      94
160.0000      63
160.0800     113
160.1600     111
160.2400     103
160.3200     141
160.4000      68
160.4800     186
160.5600      57
160.6400      99
160.7200     154
160.8000      99
160.8800     109
160.9600      48
161.0400      58
161.1200      92
161.2000     116
161.2800      81
161.3600     160
161.4400     111
161.5200      26
161.6000      37
161.6800      51
161.7600      78
161.8400      80
161.9200     144
161.9800     125

File: LDA_sample_name_56789_Psi-0_20180623-131511.txt
138.0000     250
138.0800     269
138.1600     290
138.2400     295
138.3200     268
138.4000     289
138.4800     323
138.5600     277
138.6400     321
138.7200     289
138.8000     289
138.8800     313
138.9600     408
139.0400     301
139.1200     363
139.2000     366
139.2800     322
139.3600     343
139.4400     401
139.5200     337
139.6000     364
139.6800     396
139.7600     409
139.8400     437
139.9200     424
140.0000     495
140.0800     524
140.1600     481
140.2400     499
140.3200     482
140.4000     562
140.4800     603
140.5600     580
140.6400     648
140.7200     701
140.8000     671
140.8800     699
140.9600     807
141.0400     719
141.1200     808
141.2000     975
141.2800     906
141.3600     996
141.4400    1025
141.5200    1239
141.6000    1150
141.6800    1374
141.7600    1490
141.8400    1564
141.9200    1608
142.0000    1857
142.0800    2085
142.1600    2012
142.2400    2099
142.3200    2548
142.4000    2687
142.4800    2632
142.5600    2886
142.6400    2823
142.7200    2827
142.8000    2773
142.8800    2572
142.9600    2743
143.0400    2646
143.1200    2480
143.2000    2476
143.2800    2318
143.3600    2266
143.4400    2036
143.5200    2063
143.6000    1852
143.6800    1755
143.7600    1799
143.8400    1596
143.9200    1377
144.0000    1362
144.0800    1358
144.1600    1263
144.2400    1190
144.3200    1136
144.4000    1026
144.4800     916
144.5600     861
144.6400     933
144.7200     698
144.8000     709
144.8800     711
144.9600     547
145.0400     575
145.1200     488
145.2000     501
145.2800     425
145.3600     441
145.4400     387
145.5200     338
145.6000     319
145.6800     265
145.7600     264
145.8400     291
145.9200     222
146.0000     227
146.0800     229
146.1600     210
146.2400     223
146.3200     174
146.4000     171
146.4800     177
146.5600     111
146.6400     125
146.7200     179
146.8000     160
146.8800     131
146.9600     138
147.0400     195
147.1200     167
147.2000     138
147.2800     114
147.3600     163
147.4400     182
147.5200     174
147.6000     157
147.6800     126
147.7600     132
147.8400     118
147.9200     140
148.0000     137
148.0800     163
148.1600     156
148.2400     137
148.3200     131
148.4000     132
148.4800     140
148.5600     117
148.6400      97
148.7200     132
148.8000     146
148.8800     106
148.9600     110
149.0400     111
149.1200     114
149.2000     118
149.2800     113
149.3600      56
149.4400     139
149.5200     137
149.6000     145
149.6800      84
149.7600     102
149.8400     104
149.9200      64
150.0000     145
150.0800     107
150.1600     131
150.2400      85
150.3200     144
150.4000      82
150.4800     151
150.5600     139
150.6400     120
150.7200     123
150.8000     132
150.8800      96
150.9600     112
151.0400      92
151.1200     144
151.2000     107
151.2800     127
151.3600     128
151.4400      85
151.5200     109
151.6000     114
151.6800     102
151.7600     145
151.8400     156
151.9200      98
152.0000      62
152.0800     109
152.1600      54
152.2400     115
152.3200     155
152.4000     130
152.4800     104
152.5600     100
152.6400     119
152.7200      78
152.8000     150
152.8800     135
152.9600     111
153.0400     119
153.1200     124
153.2000     109
153.2800     139
153.3600      94
153.4400     136
153.5200      92
153.6000     100
153.6800      91
153.7600     133
153.8400      68
153.9200      96
154.0000      97
154.0800      65
154.1600      92
154.2400      79
154.3200      99
154.4000      97
154.4800     103
154.5600      41
154.6400     116
154.7200     106
154.8000      97
154.8800      62
154.9600      70
155.0400      73
155.1200      75
155.2000      75
155.2800      92
155.3600      90
155.4400      78
155.5200      67
155.6000     102
155.6800      74
155.7600      72
155.8400      97
155.9200      57
156.0000      72
156.0800      65
156.1600      61
156.2400      80
156.3200      69
156.4000      23
156.4800      94
156.5600      58
156.6400      52
156.7200     102
156.8000      63
156.8800      77
156.9600      89
157.0400     100
157.1200     106
157.2000     116
157.2800      70
157.3600      56
157.4400      55
157.5200      88
157.6000      58
157.6800     115
157.7600      64
157.8400     122
157.9200      90
158.0000      96
158.0800      54
158.1600      78
158.2400      55
158.3200      91
158.4000     124
158.4800      65
158.5600      44
158.6400     123
158.7200      72
158.8000      90
158.8800      92
158.9600      69
159.0400      61
159.1200      70
159.2000      96
159.2800      67
159.3600      92
159.4400      65
159.5200      67
159.6000      88
159.6800      62
159.7600      63
159.8400      32
159.9200      62
160.0000      68
160.0800      48
160.1600     115
160.2400      76
160.3200      70
160.4000      90
160.4800      67
160.5600      50
160.6400      66
160.7200      56
160.8000      94
160.8800      35
160.9600      62
161.0400      68
161.1200      87
161.2000      61
161.2800      55
161.3600      76
161.4400      52
161.5200      57
161.6000      39
161.6800      14
161.7600      59
161.8400      31
161.9200      58
161.9800      84

File: LDA_sample_name_56789_Psi-24_20180623-130404.txt
138.0000      76
138.0800     131
138.1600     112
138.2400     111
138.3200     110
138.4000      61
138.4800      56
138.5600      99
138.6400      76
138.7200      75
138.8000      82
138.8800      65
138.9600      95
139.0400      91
139.1200      84
139.2000      93
139.2800      67
139.3600      91
139.4400      86
139.5200      46
139.6000     109
139.6800      41
139.7600      72
139.8400      55
139.9200      79
140.0000      99
140.0800      49
140.1600      70
140.2400     116
140.3200      57
140.4000      83
140.4800      76
140.5600      87
140.6400      74
140.7200      65
140.8000      38
140.8800      48
140.9600      87
141.0400     109
141.1200      77
141.2000      74
141.2800      86
141.3600      96
141.4400      64
141.5200      72
141.6000      43
141.6800     107
141.7600      53
141.8400      38
141.9200      54
142.0000      79
142.0800     101
142.1600      96
142.2400      91
142.3200      57
142.4000      65
142.4800      74
142.5600     107
142.6400     102
142.7200      95
142.8000      59
142.8800      65
142.9600      95
143.0400      78
143.1200     103
143.2000      91
143.2800      75
143.3600      80
143.4400      90
143.5200     100
143.6000      67
143.6800      81
143.7600     112
143.8400      43
143.9200      71
144.0000      84
144.0800      35
144.1600      87
144.2400      77
144.3200      59
144.4000     106
144.4800      58
144.5600      54
144.6400      87
144.7200      48
144.8000      75
144.8800      75
144.9600      72
145.0400      80
145.1200      58
145.2000      48
145.2800      44
145.3600      76
145.4400      48
145.5200      59
145.6000      59
145.6800      93
145.7600      50
145.8400      84
145.9200      51
146.0000      78
146.0800      51
146.1600      68
146.2400      73
146.3200      67
146.4000     102
146.4800      51
146.5600      58
146.6400      94
146.7200      79
146.8000     104
146.8800      96
146.9600      81
147.0400      75
147.1200      88
147.2000      85
147.2800     102
147.3600      47
147.4400      69
147.5200      80
147.6000      97
147.6800      70
147.7600      65
147.8400      82
147.9200      60
148.0000      60
148.0800      67
148.1600      50
148.2400      90
148.3200     105
148.4000      59
148.4800      96
148.5600      37
148.6400      55
148.7200      84
148.8000      88
148.8800      80
148.9600      76
149.0400      52
149.1200      85
149.2000     137
149.2800      77
149.3600      70
149.4400      29
149.5200     104
149.6000     101
149.6800      84
149.7600      76
149.8400      20
149.9200      54
150.0000      87
150.0800      43
150.1600      98
150.2400      36
150.3200      71
150.4000      60
150.4800      91
150.5600      71
150.6400      70
150.7200      56
150.8000      37
150.8800     107
150.9600      49
151.0400      32
151.1200      32
151.2000      82
151.2800      58
151.3600      64
151.4400      61
151.5200      60
151.6000      63
151.6800      47
151.7600      32
151.8400      57
151.9200      54
152.0000      80
152.0800      75
152.1600      75
152.2400      48
152.3200      38
152.4000      76
152.4800      34
152.5600      56
152.6400      61
152.7200     106
152.8000      68
152.8800      72
152.9600      80
153.0400      84
153.1200      93
153.2000      79
153.2800      80
153.3600      58
153.4400      78
153.5200      81
153.6000      55
153.6800      59
153.7600      38
153.8400      49
153.9200     115
154.0000      68
154.0800      60
154.1600      73
154.2400      51
154.3200      64
154.4000      29
154.4800      56
154.5600      63
154.6400      26
154.7200      27
154.8000      37
154.8800      68
154.9600      84
155.0400     107
155.1200      31
155.2000      52
155.2800      59
155.3600      45
155.4400      47
155.5200      22
155.6000      69
155.6800      69
155.7600      58
155.8400      83
155.9200      75
156.0000      61
156.0800      52
156.1600      41
156.2400      40
156.3200      54
156.4000      30
156.4800      48
156.5600      36
156.6400      49
156.7200      57
156.8000      52
156.8800      31
156.9600      40
157.0400      48
157.1200      44
157.2000      76
157.2800      67
157.3600      73
157.4400      30
157.5200      48
157.6000      32
157.6800      56
157.7600      66
157.8400      61
157.9200      78
158.0000      52
158.0800      42
158.1600      84
158.2400      66
158.3200      66
158.4000      21
158.4800      15
158.5600      78
158.6400      60
158.7200     108
158.8000      31
158.8800      89
158.9600      67
159.0400      48
159.1200      74
159.2000      59
159.2800      60
159.3600      83
159.4400      76
159.5200      46
159.6000      42
159.6800      75
159.7600      29
159.8400      89
159.9200      49
160.0000      45
160.0800      65
160.1600      59
160.2400      40
160.3200      76
160.4000      48
160.4800      26
160.5600      48
160.6400      29
160.7200      82
160.8000      23
160.8800      50
160.9600      47
161.0400      70
161.1200      54
161.2000      23
161.2800      26
161.3600      23
161.4400      61
161.5200      47
161.6000      57
161.6800      46
161.7600      27
161.8400      85
161.9200      11
161.9800      61