Folder: xrd/XRD_Tool/log (part 5)

File: LDA_sample_name_56789_Psi-24_20180623-130441.txt
138.0000     148
138.0800     139
138.1600     107
138.2400     145
138.3200      98
138.4000     147
138.4800      84
138.5600     134
138.6400      69
138.7200     105
138.8000      99
138.8800      88
138.9600     115
139.0400     125
139.1200     124
139.2000      83
139.2800     117
139.3600      84
139.4400      93
139.5200     107
139.6000     110
139.6800     101
139.7600      72
139.8400      96
139.9200     148
140.0000      56
140.0800     106
140.1600     133
140.2400     102
140.3200     123
140.4000     108
140.4800      73
140.5600     136
140.6400     144
140.7200     121
140.8000     107
140.8800     161
140.9600     145
141.0400     149
141.1200      78
141.2000     171
141.2800     100
141.3600     150
141.4400     114
141.5200     113
141.6000     108
141.6800      97
141.7600     136
141.8400      99
141.9200      90
142.0000     153
142.0800     108
142.1600      99
142.2400     116
142.3200      64
142.4000     157
142.4800      75
142.5600     159
142.6400     111
142.7200     148
142.8000     110
142.8800     121
142.9600     153
143.0400     113
143.1200     123
143.2000     106
143.2800      85
143.3600     154
143.4400      96
143.5200      43
143.6000     149
143.6800     112
143.7600      84
143.8400     128
143.9200      67
144.0000     129
144.0800     159
144.1600      65
144.2400     116
144.3200     136
144.4000      65
144.4800      85
144.5600      63
144.6400      96
144.7200     124
144.8000     133
144.8800     116
144.9600      84
145.0400      68
145.1200      74
145.2000     117
145.2800     110
145.3600      97
145.4400      81
145.5200      65
145.6000      62
145.6800     106
145.7600      76
145.8400     124
145.9200     102
146.0000      76
146.0800      90
146.1600      81
146.2400     102
146.3200     107
146.4000      83
146.4800     110
146.5600     117
146.6400      86
146.7200      98
146.8000     134
146.8800     112
146.9600      91
147.0400      90
147.1200     130
147.2000     101
147.2800      93
147.3600      76
147.4400     130
147.5200      96
147.6000      94
147.6800     104
147.7600      98
147.8400     101
147.9200      92
148.0000     125
148.0800      91
148.1600      99
148.2400      97
148.3200     113
148.4000      48
148.4800      65
148.5600     101
148.6400     118
148.7200      92
148.8000     125
148.8800      78
148.9600      87
149.0400     118
149.1200     123
149.2000     109
149.2800      93
149.3600     106
149.4400     120
149.5200     112
149.6000      80
149.6800     133
149.7600      75
149.8400      86
149.9200      98
150.0000      39
150.0800     109
150.1600      66
150.2400     114
150.3200      91
150.4000     117
150.4800     113
150.5600     130
150.6400     120
150.7200      64
150.8000      87
150.8800      84
150.9600      76
151.0400      91
151.1200      79
151.2000      84
151.2800      96
151.3600     125
151.4400     105
151.5200      80
151.6000      77
151.6800      73
151.7600      46
151.8400      95
151.9200      79
152.0000      68
152.0800     129
152.1600      93
152.2400     121
152.3200     114
152.4000      97
152.4800      93
152.5600     105
152.6400     101
152.7200      71
152.8000     154
152.8800     140
152.9600      88
153.0400      88
153.1200      76
153.2000     123
153.2800     118
153.3600     126
153.4400      61
153.5200     101
153.6000      84
153.6800     107
153.7600      94
153.8400      75
153.9200     117
154.0000      80
154.0800      71
154.1600     117
154.2400     115
154.3200     114
154.4000      81
154.4800      86
154.5600     104
154.6400      75
154.7200     131
154.8000     104
154.8800      85
154.9600     124
155.0400      91
155.1200      66
155.2000      53
155.2800     119
155.3600     121
155.4400      51
155.5200      91
155.6000      69
155.6800      87
155.7600      92
155.8400     119
155.9200      91
156.0000     121
156.0800     126
156.1600     118
156.2400     130
156.3200      89
156.4000      80
156.4800     107
156.5600      55
156.6400      63
156.7200      70
156.8000      35
156.8800     114
156.9600      58
157.0400      69
157.1200      63
157.2000      70
157.2800      97
157.3600      96
157.4400      80
157.5200      96
157.6000      83
157.6800      73
157.7600      77
157.8400      56
157.9200      62
158.0000     130
158.0800      68
158.1600      77
158.2400      61
158.3200      73
158.4000      98
158.4800     120
158.5600      58
158.6400     109
158.7200     100
158.8000     106
158.8800     116
158.9600      44
159.0400      83
159.1200      75
159.2000      72
159.2800      73
159.3600      65
159.4400      57
159.5200      90
159.6000      34
159.6800      77
159.7600      74
159.8400      58
159.9200      92
160.0000     101
160.0800      90
160.1600      79
160.2400       7
160.3200      77
160.4000      46
160.4800      62
160.5600      91
160.6400     101
160.7200      95
160.8000      61
160.8800      72
160.9600      59
161.0400     106
161.1200      45
161.2000      32
161.2800      39
161.3600      51
161.4400      55
161.5200     116
161.6000      48
161.6800      85
161.7600      53
161.8400      69
161.9200      73
161.9800      73

File: LDA_sample_name_56789_Psi-24_20180623-130837.txt
138.0000     385
138.0800     405
138.1600     419
138.2400     456
138.3200     400
138.4000     473
138.4800     453
138.5600     456
138.6400     478
138.7200     500
138.8000     492
138.8800     582
138.9600     525
139.0400     463
139.1200     577
139.2000     576
139.2800     518
139.3600     686
139.4400     683
139.5200     632
139.6000     633
139.6800     654
139.7600     743
139.8400     644
139.9200     725
140.0000     672
140.0800     776
140.1600     743
140.2400     793
140.3200     820
140.4000     825
140.4800     737
140.5600     777
140.6400     832
140.7200     744
140.8000     803
140.8800     828
140.9600     752
141.0400     800
141.1200     725
141.2000     730
141.2800     742
141.3600     823
141.4400     771
141.5200     632
141.6000     725
141.6800     757
141.7600     611
141.8400     717
141.9200     687
142.0000     643
142.0800     634
142.1600     682
142.2400     615
142.3200     686
142.4000     630
142.4800     623
142.5600     643
142.6400     595
142.7200     566
142.8000     609
142.8800     630
142.9600     607
143.0400     495
143.1200     508
143.2000     529
143.2800     552
143.3600     437
143.4400     461
143.5200     460
143.6000     408
143.6800     390
143.7600     358
143.8400     387
143.9200     334
144.0000     400
144.0800     422
144.1600     380
144.2400     343
144.3200     332
144.4000     384
144.4800     302
144.5600     330
144.6400     297
144.7200     277
144.8000     306
144.8800     288
144.9600     299
145.0400     186
145.1200     203
145.2000     278
145.2800     313
145.3600     308
145.4400     316
145.5200     234
145.6000     241
145.6800     296
145.7600     266
145.8400     269
145.9200     240
146.0000     192
146.0800     199
146.1600     223
146.2400     199
146.3200     220
146.4000     169
146.4800     222
146.5600     264
146.6400     232
146.7200     171
146.8000     159
146.8800     215
146.9600     194
147.0400     234
147.1200     197
147.2000     225
147.2800     219
147.3600     160
147.4400     244
147.5200     275
147.6000     254
147.6800     177
147.7600     261
147.8400     191
147.9200     251
148.0000     198
148.0800     221
148.1600     161
148.2400     189
148.3200     197
148.4000     144
148.4800     193
148.5600     194
148.6400     194
148.7200     177
148.8000     216
148.8800     192
148.9600     165
149.0400     213
149.1200     176
149.2000     157
149.2800     133
149.3600     149
149.4400     236
149.5200     113
149.6000     136
149.6800     104
149.7600     160
149.8400     180
149.9200     142
150.0000     174
150.0800     175
150.1600     156
150.2400     181
150.3200     170
150.4000     215
150.4800     186
150.5600     122
150.6400     189
150.7200     159
150.8000     200
150.8800     144
150.9600     163
151.0400     183
151.1200     155
151.2000     122
151.2800     159
151.3600     172
151.4400     196
151.5200     166
151.6000     178
151.6800     199
151.7600     122
151.8400     159
151.9200     113
152.0000     195
152.0800     110
152.1600     151
152.2400     156
152.3200     157
152.4000     171
152.4800     121
152.5600     143
152.6400     132
152.7200     152
152.8000     174
152.8800     227
152.9600     144
153.0400     224
153.1200     118
153.2000     133
153.2800     152
153.3600     196
153.4400     197
153.5200     161
153.6000     167
153.6800     100
153.7600     112
153.8400     103
153.9200     119
154.0000     164
154.0800     148
154.1600     116
154.2400     166
154.3200     126
154.4000     177
154.4800     169
154.5600     132
154.6400     162
154.7200     105
154.8000     111
154.8800     155
154.9600     119
155.0400     137
155.1200     163
155.2000     135
155.2800      92
155.3600     113
155.4400      65
155.5200     139
155.6000     131
155.6800     131
155.7600      83
155.8400     129
155.9200     121
156.0000     104
156.0800     106
156.1600      67
156.2400     146
156.3200     128
156.4000      73
156.4800     109
156.5600     166
156.6400     107
156.7200      71
156.8000     123
156.8800     132
156.9600     139
157.0400     142
157.1200      91
157.2000     117
157.2800      69
157.3600     144
157.4400     112
157.5200     162
157.6000     139
157.6800     121
157.7600     100
157.8400     156
157.9200     110
158.0000      55
158.0800      88
158.1600      78
158.2400      84
158.3200      92
158.4000      73
158.4800     136
158.5600     148
158.6400     130
158.7200     142
158.8000      36
158.8800      86
158.9600     128
159.0400      61
159.1200      86
159.2000     132
159.2800     193
159.3600      63
159.4400     125
159.5200     137
159.6000      81
159.6800     115
159.7600     114
159.8400     144
159.9200     160
160.0000     199
160.0800     152
160.1600     117
160.2400      76
160.3200     118
160.4000     100
160.4800      82
160.5600     141
160.6400     119
160.7200      87
160.8000      67
160.8800      97
160.9600     124
161.0400     106
161.1200      97
161.2000      69
161.2800      72
161.3600      89
161.4400     126
161.5200     118
161.6000      65
161.6800     135
161.7600     128
161.8400     160
161.9200      47
161.9800      90

File: LDA_sample_name_56789_Psi-24_20180623-130916.txt
138.0000     147
138.0800     130
138.1600     135
138.2400      82
138.3200      90
138.4000     104
138.4800     108
138.5600     107
138.6400      67
138.7200      93
138.8000      70
138.8800      98
138.9600     126
139.0400      97
139.1200     132
139.2000      97
139.2800      52
139.3600     104
139.4400     127
139.5200      81
139.6000      90
139.6800     110
139.7600      63
139.8400     132
139.9200     140
140.0000     124
140.0800     130
140.1600      73
140.2400     104
140.3200     115
140.4000     103
140.4800      89
140.5600      70
140.6400      69
140.7200     104
140.8000      81
140.8800     127
140.9600      84
141.0400     126
141.1200     107
141.2000      86
141.2800     117
141.3600     136
141.4400     100
141.5200     120
141.6000      66
141.6800     102
141.7600     132
141.8400     111
141.9200     104
142.0000     131
142.0800     111
142.1600      60
142.2400     159
142.3200     128
142.4000      70
142.4800     105
142.5600     147
142.6400     153
142.7200     137
142.8000     104
142.8800     155
142.9600      82
143.0400     115
143.1200     122
143.2000     156
143.2800      72
143.3600      62
143.4400     149
143.5200      99
143.6000     104
143.6800     133
143.7600     142
143.8400      93
143.9200     124
144.0000      99
144.0800     133
144.1600      79
144.2400     103
144.3200     105
144.4000     155
144.4800     137
144.5600     121
144.6400      92
144.7200     104
144.8000      98
144.8800      90
144.9600      91
145.0400      65
145.1200      81
145.2000      86
145.2800     125
145.3600     131
145.4400     116
145.5200      85
145.6000      70
145.6800      74
145.7600      94
145.8400     115
145.9200      99
146.0000      76
146.0800      56
146.1600     113
146.2400      98
146.3200     133
146.4000     109
146.4800      96
146.5600     107
146.6400      76
146.7200      86
146.8000     126
146.8800     117
146.9600      78
147.0400      76
147.1200      46
147.2000     118
147.2800      83
147.3600      87
147.4400     108
147.5200      70
147.6000      99
147.6800      60
147.7600      87
147.8400      83
147.9200     142
148.0000     146
148.0800      90
148.1600     125
148.2400      82
148.3200     124
148.4000     121
148.4800     113
148.5600      74
148.6400      76
148.7200     127
148.8000     117
148.8800     110
148.9600      92
149.0400      84
149.1200     107
149.2000     103
149.2800      95
149.3600      64
149.4400      93
149.5200      87
149.6000      82
149.6800      69
149.7600     110
149.8400     112
149.9200     145
150.0000      61
150.0800     121
150.1600      81
150.2400     110
150.3200     128
150.4000      67
150.4800      80
150.5600     106
150.6400     111
150.7200      92
150.8000      69
150.8800     121
150.9600     104
151.0400      75
151.1200      90
151.2000      87
151.2800      53
151.3600     102
151.4400     115
151.5200      90
151.6000      97
151.6800      89
151.7600      66
151.8400      85
151.9200     117
152.0000      94
152.0800     123
152.1600      67
152.2400      73
152.3200     138
152.4000     137
152.4800     102
152.5600     110
152.6400      66
152.7200     108
152.8000      88
152.8800     147
152.9600     123
153.0400     162
153.1200     106
153.2000      92
153.2800      48
153.3600     112
153.4400     126
153.5200      94
153.6000      75
153.6800     120
153.7600      76
153.8400     100
153.9200      99
154.0000     107
154.0800      85
154.1600     142
154.2400      83
154.3200      97
154.4000      59
154.4800     143
154.5600     106
154.6400     109
154.7200     102
154.8000      63
154.8800     119
154.9600      71
155.0400      53
155.1200     127
155.2000      82
155.2800     104
155.3600     112
155.4400     104
155.5200      89
155.6000      76
155.6800     103
155.7600      97
155.8400      85
155.9200      91
156.0000     112
156.0800     129
156.1600     100
156.2400      99
156.3200     138
156.4000      73
156.4800     101
156.5600     119
156.6400     150
156.7200      61
156.8000      94
156.8800     104
156.9600      74
157.0400     104
157.1200      77
157.2000     120
157.2800     106
157.3600      73
157.4400      74
157.5200      93
157.6000      64
157.6800      72
157.7600      82
157.8400     106
157.9200      96
158.0000      89
158.0800      71
158.1600      46
158.2400      57
158.3200      83
158.4000     106
158.4800     108
158.5600     103
158.6400      72
158.7200     133
158.8000      99
158.8800     107
158.9600      71
159.0400     138
159.1200      84
159.2000      93
159.2800      98
159.3600      84
159.4400     106
159.5200      72
159.6000      85
159.6800     108
159.7600     108
159.8400     112
159.9200     103
160.0000     101
160.0800     120
160.1600      82
160.2400      58
160.3200      82
160.4000     100
160.4800      84
160.5600      91
160.6400      75
160.7200      86
160.8000      79
160.8800      62
160.9600      17
161.0400     103
161.1200      54
161.2000      86
161.2800     102
161.3600     113
161.4400      87
161.5200      81
161.6000      46
161.6800      75
161.7600     101
161.8400     107
161.9200      56
161.9800      66

File: LDA_sample_name_56789_Psi-24_20180623-131346.txt
138.0000     110
138.0800      97
138.1600     111
138.2400      73
138.3200      82
138.4000      80
138.4800     120
138.5600     125
138.6400      90
138.7200     130
138.8000      86
138.8800      93
138.9600     109
139.0400      52
139.1200     108
139.2000      90
139.2800      79
139.3600      79
139.4400      80
139.5200      89
139.6000      67
139.6800      57
139.7600      50
139.8400      81
139.9200      97
140.0000      54
140.0800     113
140.1600     128
140.2400      86
140.3200      52
140.4000      95
140.4800      49
140.5600      74
140.6400      98
140.7200     128
140.8000     105
140.8800      68
140.9600      86
141.0400      70
141.1200      91
141.2000     137
141.2800      84
141.3600      68
141.4400      48
141.5200      74
141.6000      80
141.6800     129
141.7600     101
141.8400      95
141.9200      59
142.0000      97
142.0800      59
142.1600      82
142.2400      37
142.3200      92
142.4000     102
142.4800      77
142.5600      82
142.6400      70
142.7200      76
142.8000     109
142.8800      51
142.9600      84
143.0400      79
143.1200      63
143.2000      93
143.2800      86
143.3600      85
143.4400      84
143.5200      91
143.6000      64
143.6800      84
143.7600      65
143.8400     119
143.9200      92
144.0000      88
144.0800      87
144.1600     108
144.2400      72
144.3200     103
144.4000      50
144.4800     129
144.5600     113
144.6400      65
144.7200     103
144.8000      90
144.8800     124
144.9600     133
145.0400      64
145.1200      94
145.2000      46
145.2800      77
145.3600      94
145.4400      72
145.5200      65
145.6000      75
145.6800     103
145.7600      86
145.8400      71
145.9200      79
146.0000     104
146.0800      93
146.1600      87
146.2400      59
146.3200     102
146.4000     101
146.4800      91
146.5600      44
146.6400      85
146.7200      88
146.8000      95
146.8800      80
146.9600      71
147.0400      78
147.1200      91
147.2000      74
147.2800      97
147.3600      91
147.4400     102
147.5200      59
147.6000      77
147.6800      68
147.7600      81
147.8400      72
147.9200      79
148.0000      67
148.0800     105
148.1600     117
148.2400     128
148.3200      65
148.4000      74
148.4800      93
148.5600      88
148.6400      70
148.7200      46
148.8000      84
148.8800      87
148.9600      67
149.0400      86
149.1200      94
149.2000      72
149.2800     112
149.3600      66
149.4400      93
149.5200      89
149.6000      70
149.6800      89
149.7600      81
149.8400     105
149.9200      75
150.0000      77
150.0800      75
150.1600      91
150.2400      93
150.3200     127
150.4000      58
150.4800      91
150.5600      81
150.6400     100
150.7200      81
150.8000     108
150.8800      58
150.9600      98
151.0400      97
151.1200      83
151.2000      47
151.2800     141
151.3600      52
151.4400     101
151.5200     117
151.6000      90
151.6800      85
151.7600      70
151.8400      64
151.9200      65
152.0000      91
152.0800      76
152.1600      93
152.2400      93
152.3200     108
152.4000     106
152.4800      13
152.5600     130
152.6400      80
152.7200      57
152.8000      64
152.8800      97
152.9600      95
153.0400      92
153.1200      68
153.2000      85
153.2800      65
153.3600      96
153.4400      64
153.5200      69
153.6000      81
153.6800      82
153.7600      76
153.8400     131
153.9200      59
154.0000      64
154.0800      77
154.1600      67
154.2400      93
154.3200      71
154.4000     117
154.4800     106
154.5600      87
154.6400      49
154.7200      75
154.8000     119
154.8800     115
154.9600      81
155.0400     111
155.1200      73
155.2000      55
155.2800      88
155.3600      63
155.4400      90
155.5200     106
155.6000      92
155.6800      84
155.7600     101
155.8400      89
155.9200      74
156.0000      76
156.0800     114
156.1600      66
156.2400      47
156.3200      80
156.4000      55
156.4800      81
156.5600      66
156.6400      37
156.7200      88
156.8000      65
156.8800      53
156.9600      92
157.0400      72
157.1200      22
157.2000      64
157.2800     136
157.3600      64
157.4400      81
157.5200      95
157.6000      64
157.6800      66
157.7600      98
157.8400     107
157.9200      56
158.0000     113
158.0800      73
158.1600      51
158.2400      68
158.3200      51
158.4000      62
158.4800      89
158.5600     121
158.6400      57
158.7200      85
158.8000      81
158.8800      51
158.9600      48
159.0400      32
159.1200      55
159.2000      78
159.2800      54
159.3600      59
159.4400      59
159.5200      43
159.6000      50
159.6800      77
159.7600      87
159.8400      86
159.9200      54
160.0000      12
160.0800      62
160.1600      49
160.2400      53
160.3200      29
160.4000      55
160.4800      43
160.5600      34
160.6400      64
160.7200      42
160.8000      54
160.8800      78
160.9600      78
161.0400      79
161.1200      85
161.2000      35
161.2800      49
161.3600      67
161.4400      47
161.5200      51
161.6000      18
161.6800      45
161.7600      65
161.8400      59
161.9200      49
161.9800      31

File: LDA_sample_name_56789_Psi-24_20180623-131449.txt
138.0000      90
138.0800      94
138.1600      89
138.2400     113
138.3200      76
138.4000      94
138.4800      84
138.5600      61
138.6400      80
138.7200      93
138.8000      64
138.8800      40
138.9600      72
139.0400      60
139.1200      71
139.2000      72
139.2800     103
139.3600     101
139.4400      71
139.5200      97
139.6000      92
139.6800      91
139.7600      91
139.8400      94
139.9200      94
140.0000      38
140.0800      48
140.1600      45
140.2400      74
140.3200      72
140.4000     116
140.4800      85
140.5600     110
140.6400      58
140.7200      87
140.8000      49
140.8800      71
140.9600      65
141.0400      87
141.1200      68
141.2000     101
141.2800      87
141.3600      73
141.4400      72
141.5200      48
141.6000     102
141.6800      96
141.7600      63
141.8400      95
141.9200      66
142.0000      65
142.0800      78
142.1600      38
142.2400      54
142.3200      58
142.4000     116
142.4800      89
142.5600     112
142.6400      83
142.7200      94
142.8000      31
142.8800     102
142.9600     114
143.0400     108
143.1200      72
143.2000      47
143.2800     111
143.3600      69
143.4400      62
143.5200      85
143.6000     102
143.6800      54
143.7600      89
143.8400      38
143.9200      62
144.0000      50
144.0800      73
144.1600      71
144.2400      73
144.3200      48
144.4000      67
144.4800      64
144.5600      81
144.6400      87
144.7200      53
144.8000      96
144.8800      91
144.9600      49
145.0400      57
145.1200     101
145.2000      69
145.2800     126
145.3600      44
145.4400      48
145.5200     101
145.6000      81
145.6800      65
145.7600      97
145.8400      65
145.9200      87
146.0000      86
146.0800      91
146.1600      58
146.2400      74
146.3200      67
146.4000      44
146.4800      67
146.5600      71
146.6400      59
146.7200      82
146.8000      41
146.8800      61
146.9600      94
147.0400     102
147.1200     104
147.2000     118
147.2800      56
147.3600     100
147.4400     118
147.5200      88
147.6000      59
147.6800      65
147.7600      59
147.8400      48
147.9200      92
148.0000      71
148.0800      59
148.1600     112
148.2400      56
148.3200      74
148.4000      72
148.4800      44
148.5600      75
148.6400      50
148.7200      75
148.8000      72
148.8800      64
148.9600     105
149.0400     112
149.1200      50
149.2000      33
149.2800      80
149.3600     108
149.4400     108
149.5200      98
149.6000      86
149.6800      64
149.7600      34
149.8400      58
149.9200      68
150.0000      72
150.0800      37
150.1600     109
150.2400      83
150.3200      53
150.4000      83
150.4800     113
150.5600      76
150.6400      61
150.7200      78
150.8000      57
150.8800      76
150.9600      63
151.0400      43
151.1200      80
151.2000      47
151.2800      41
151.3600      77
151.4400      79
151.5200      58
151.6000      66
151.6800      27
151.7600      45
151.8400      42
151.9200      46
152.0000     107
152.0800      31
152.1600      77
152.2400     107
152.3200      35
152.4000      72
152.4800      65
152.5600      62
152.6400      72
152.7200      38
152.8000      83
152.8800      52
152.9600      42
153.0400      99
153.1200      85
153.2000      59
153.2800      78
153.3600      94
153.4400      86
153.5200      44
153.6000      79
153.6800      47
153.7600      50
153.8400      32
153.9200      60
154.0000      92
154.0800      50
154.1600      77
154.2400      72
154.3200      55
154.4000      47
154.4800      52
154.5600      26
154.6400      71
154.7200      11
154.8000      54
154.8800      69
154.9600      40
155.0400      54
155.1200      79
155.2000      75
155.2800      84
155.3600      65
155.4400      51
155.5200      71
155.6000      27
155.6800      45
155.7600      45
155.8400      75
155.9200      50
156.0000      45
156.0800      72
156.1600      79
156.2400      29
156.3200      78
156.4000       6
156.4800      34
156.5600      95
156.6400      60
156.7200      51
156.8000      34
156.8800      84
156.9600      18
157.0400      46
157.1200      46
157.2000      52
157.2800      71
157.3600     128
157.4400      18
157.5200      35
157.6000      39
157.6800      45
157.7600      66
157.8400     112
157.9200      59
158.0000       6
158.0800      81
158.1600      87
158.2400      87
158.3200      67
158.4000      78
158.4800      60
158.5600      42
158.6400       9
158.7200      52
158.8000      59
158.8800      96
158.9600      24
159.0400      60
159.1200      49
159.2000      62
159.2800      53
159.3600      60
159.4400      57
159.5200      25
159.6000      59
159.6800      63
159.7600      55
159.8400      52
159.9200      65
160.0000      52
160.0800      97
160.1600      40
160.2400      64
160.3200      65
160.4000      42
160.4800      53
160.5600      61
160.6400      70
160.7200       4
160.8000      64
160.8800      45
160.9600      41
161.0400      34
161.1200      44
161.2000      37
161.2800      51
161.3600      25
161.4400      69
161.5200      23
161.6000      19
161.6800      31
161.7600      73
161.8400      34
161.9200      35
161.9800      96