Folder: xrd/XRD_Tool/log (part 2)

File: 20180621-log.txt
[2018-06-21 15:21:00 615]Log Start******************************************************

[2018-06-21 15:21:06 551] [UserLogin] login succeed!user=administrator,pwd=123456

[2018-06-21 15:21:06 732] [DeviceInit] Init Start
2F0D
[2018-06-21 15:21:40 804] UART Send: [/
]
0D0A433D
[2018-06-21 15:21:40 953] UART Recv: @1[
C=]
5246460D
[2018-06-21 15:21:42 499] UART Send: [RFF
]
5246460D0A2B2B3130310D0A433D
[2018-06-21 15:21:42 640] UART Recv: @1[RFF
++101
C=]
524B4D0D
[2018-06-21 15:21:47 945] UART Send: [RKM
]
524B4D0D30302E30300D200D30302E30300D0A433D
[2018-06-21 15:21:48 101] UART Recv: @1[RKM
00.00

00.00
C=]

[2018-06-21 15:21:52 188] [DeviceInit] warmup check=True

[2018-06-21 15:21:53 625] [DeviceInit] warmup confirm=False

[2018-06-21 15:21:53 625] [DeviceInit] warmup skip, GetDeviceZeroPoint
5041520D
[2018-06-21 15:21:55 469] UART Send: [PAR
]
5041520D0A4C574C33300D0A55504C37350D0A535045350D0A535450302E30320D0A494E54310D0A4D584E31300D0A4D5854310D0A4D5853302E3030350D0A4D4F44330D0A574156312E35343138340D0A54535A2034352E333530300D0A54445A2031392E333135300D0A0A433D
[2018-06-21 15:21:55 610] UART Recv: @1[PAR
LWL30
UPL75
SPE5
STP0.02
INT1
MXN10
MXT1
MXS0.005
MOD3
WAV1.54184
TSZ 45.3500
TDZ 19.3150

C=]
5041460D
[2018-06-21 15:21:56 531] UART Send: [PAF
]
5041460D
[2018-06-21 15:21:56 680] UART Recv: @1[PAF
]
0A5A54412D3030332E333634370D0A0A5A54422D3030312E313037390D0A0A5A54582D3033352E303030300D0A0A5A54592D3035302E383132350D0A0A5A545A2D3030352E303030300D0A0A5354503030302E303230300D0A0A494E543030312E303030300D0A0A535045303031320D0A0A433D
[2018-06-21 15:21:56 946] UART Recv: @1[
ZTA-003.3647

ZTB-001.1079

ZTX-035.0000

ZTY-050.8125

ZTZ-005.0000

STP000.0200

INT001.0000

SPE0012

C=]
534450310D
[2018-06-21 15:21:58 546] UART Send: [SDP1
]
534450310D
[2018-06-21 15:21:58 687] UART Recv: @1[SDP1
]
0A433D
[2018-06-21 15:21:58 827] UART Recv: @1[
C=]

[2018-06-21 15:21:58 827] [DeviceInit] Init Finish

[2018-06-21 15:22:01 170] [Parent] Menu Texture

[2018-06-21 15:23:06 662] [Parent] Menu Measure

[2018-06-21 15:23:06 724] [Measure] check 5 Axis=Unchecked

[2018-06-21 15:23:09 052] [Parent] Menu Texture

[2018-06-21 15:23:40 891] [Texture] Measure Start
2F0D
[2018-06-21 15:24:17 863] UART Send: [/
]
0D0A433D
[2018-06-21 15:24:17 957] UART Recv: @2[
C=]
4D4F44330D
[2018-06-21 15:24:47 009] UART Send: [MOD3
]
4D4F44330D0A4D4F44330D0A4D4F44330D0A433D
[2018-06-21 15:24:49 321] UART Recv: @2[MOD3
MOD3
MOD3
C=]
[2018-06-21 15:30:09 451]Log Start******************************************************

[2018-06-21 15:30:10 622] [UserLogin] login succeed!user=administrator,pwd=123456

[2018-06-21 15:30:10 732] [DeviceInit] Init Start
2F0D
[2018-06-21 15:30:12 825] UART Send: [/
]
0D0A433D
[2018-06-21 15:30:12 965] UART Recv: @1[
C=]
5246460D
[2018-06-21 15:30:14 049] UART Send: [RFF
]
5246460D0A2B2B3130310D0A433D
[2018-06-21 15:30:14 187] UART Recv: @1[RFF
++101
C=]
524B4D0D
[2018-06-21 15:30:14 952] UART Send: [RKM
]
524B4D0D30302E30300D200D30302E30300D0A433D
[2018-06-21 15:30:15 108] UART Recv: @1[RKM
00.00

00.00
C=]

[2018-06-21 15:30:17 298] [DeviceInit] Init Skip

[2018-06-21 15:30:18 735] [Parent] Menu Texture

[2018-06-21 15:30:31 748] [Parent] Menu Measure

[2018-06-21 15:30:31 795] [Measure] check 5 Axis=Unchecked

[2018-06-21 15:30:32 779] [Parent] Menu Texture

[2018-06-21 15:30:34 247] [Texture] Measure Start
2F0D
[2018-06-21 15:30:36 934] UART Send: [/
]
0D0A433D
[2018-06-21 15:30:37 028] UART Recv: @3[
C=]
53414E3135300D
[2018-06-21 15:30:41 730] UART Send: [SAN150
]
53414E3135300D
[2018-06-21 15:30:41 871] UART Recv: @3[SAN150
]
0A433D
[2018-06-21 15:30:51 197] UART Recv: @3[
C=]
[2018-06-21 15:31:47 516]Log Start******************************************************

[2018-06-21 15:31:48 770] [UserLogin] login succeed!user=administrator,pwd=123456

[2018-06-21 15:31:48 848] [DeviceInit] Init Start
2F0D
[2018-06-21 15:31:50 036] UART Send: [/
]
0D0A433D
[2018-06-21 15:31:50 176] UART Recv: @1[
C=]
5246460D
[2018-06-21 15:31:51 054] UART Send: [RFF
]
5246460D0A2B2B3130310D0A433D
[2018-06-21 15:31:51 175] UART Recv: @1[RFF
++101
C=]
524B4D0D
[2018-06-21 15:31:51 816] UART Send: [RKM
]
524B4D0D30302E30300D200D30302E30300D0A433D
[2018-06-21 15:31:51 956] UART Recv: @1[RKM
00.00

00.00
C=]

[2018-06-21 15:31:54 018] [DeviceInit] Init Skip

[2018-06-21 15:31:55 190] [Parent] Menu Texture

[2018-06-21 15:32:05 171] [Texture] Measure Start
2F0D
[2018-06-21 15:32:09 545] UART Send: [/
]
0D0A433D
[2018-06-21 15:32:09 638] UART Recv: @3[
C=]
[2018-06-21 15:37:11 734]Log Start******************************************************

[2018-06-21 15:37:12 890] [UserLogin] login succeed!user=administrator,pwd=123456

[2018-06-21 15:37:12 999] [DeviceInit] Init Start
2F0D
[2018-06-21 15:37:14 858] UART Send: [/
]
0D0A433D
[2018-06-21 15:37:15 014] UART Recv: @1[
C=]
5246460D
[2018-06-21 15:37:16 670] UART Send: [RFF
]
5246460D0A2B2B3130310D0A433D
[2018-06-21 15:37:16 811] UART Recv: @1[RFF
++101
C=]
524B4D0D
[2018-06-21 15:37:17 248] UART Send: [RKM
]
524B4D0D30302E30300D200D30302E30300D0A433D
[2018-06-21 15:37:17 388] UART Recv: @1[RKM
00.00

00.00
C=]

[2018-06-21 15:37:20 232] [DeviceInit] Init Skip

[2018-06-21 15:37:22 044] [Parent] Menu Texture

[2018-06-21 15:37:23 825] [Parent] Menu Setup

[2018-06-21 15:37:25 184] [Parent] Menu Measure

[2018-06-21 15:37:25 230] [Measure] check 5 Axis=Unchecked

[2018-06-21 15:37:25 983] [Parent] Menu Texture
[2018-06-21 15:41:15 012]Log Start******************************************************

[2018-06-21 15:41:16 558] [UserLogin] login succeed!user=administrator,pwd=123456

[2018-06-21 15:41:16 636] [DeviceInit] Init Start
2F0D
[2018-06-21 15:41:19 432] UART Send: [/
]
0D0A433D
[2018-06-21 15:41:19 572] UART Recv: @1[
C=]
5246460D
[2018-06-21 15:41:20 931] UART Send: [RFF
]
5246460D0A2B2B3130310D0A433D
[2018-06-21 15:41:21 072] UART Recv: @1[RFF
++101
C=]
524B4D0D
[2018-06-21 15:41:21 759] UART Send: [RKM
]
524B4D0D30302E30300D200D30302E30300D0A433D
[2018-06-21 15:41:21 900] UART Recv: @1[RKM
00.00

00.00
C=]

[2018-06-21 15:41:23 790] [DeviceInit] Init Skip

[2018-06-21 15:41:25 227] [Parent] Menu Setup

[2018-06-21 15:41:25 836] [Parent] Menu Texture

[2018-06-21 15:41:27 352] [Parent] Menu Measure

[2018-06-21 15:41:27 414] [Measure] check 5 Axis=Unchecked

[2018-06-21 15:41:28 367] [Parent] Menu Texture

[2018-06-21 15:41:45 785] [Texture] Measure Start
2F0D
[2018-06-21 15:41:47 831] UART Send: [/
]
0D0A433D
[2018-06-21 15:41:47 925] UART Recv: @3[
C=]
53414E3134350D
[2018-06-21 15:41:57 467] UART Send: [SAN145
]
53414E3134350D
[2018-06-21 15:41:57 623] UART Recv: @3[SAN145
]
0A433D
[2018-06-21 15:41:58 857] UART Recv: @3[
C=]
534B4D32352033300D
[2018-06-21 15:42:14 049] UART Send: [SKM25 30
]
534B4D32352033300D
[2018-06-21 15:42:14 127] UART Recv: @3[SKM25 30
]
0A433D
[2018-06-21 15:42:28 045] UART Recv: @3[
C=]
524B4D0D
[2018-06-21 15:43:10 823] UART Send: [RKM
]

[2018-06-21 15:43:10 823] [Parent] closing
524B4D0D32342E39330D200D33302E30310D0A433D
[2018-06-21 15:43:10 854] UART Recv: @3[RKM
24.93

30.01
C=]
494E54310D
[2018-06-21 15:43:36 598] UART Send: [INT1
]
494E54310D0A494E54310D0A494E54310D0A433D
[2018-06-21 15:43:40 878] UART Recv: @3[INT1
INT1
INT1
C=]

[2018-06-21 15:43:47 955] [Parent] closing
535045350D
[...]

[2018-06-21 19:59:40 424] Chart RealTime update[start @61rowsCount=62]

[2018-06-21 19:59:40 424] Binding[10 305 617]
0A23203331302E303030302020202020203634310D
[2018-06-21 19:59:41 414] UART Recv: @3[
# 310.0000      641
]

[2018-06-21 19:59:41 414] [Texture] analyzecount=1totalrecvcount=63

[2018-06-21 19:59:41 414] Chart RealTime update[start @62rowsCount=63]

[2018-06-21 19:59:41 414] Binding[10 310 641]
0A23203331352E303030302020202020203537330D
[2018-06-21 19:59:42 419] UART Recv: @3[
# 315.0000      573
]

[2018-06-21 19:59:42 419] [Texture] analyzecount=1totalrecvcount=64

[2018-06-21 19:59:42 419] Chart RealTime update[start @63rowsCount=64]

[2018-06-21 19:59:42 419] Binding[10 315 573]
0A23203332302E303030302020202020203634340D
[2018-06-21 19:59:43 426] UART Recv: @3[
# 320.0000      644
]

[2018-06-21 19:59:43 426] [Texture] analyzecount=1totalrecvcount=65

[2018-06-21 19:59:43 426] Chart RealTime update[start @64rowsCount=65]

[2018-06-21 19:59:43 426] Binding[10 320 644]
0A23203332352E303030302020202020203633380D
[2018-06-21 19:59:44 416] UART Recv: @3[
# 325.0000      638
]

[2018-06-21 19:59:44 416] [Texture] analyzecount=1totalrecvcount=66

[2018-06-21 19:59:44 416] Chart RealTime update[start @65rowsCount=66]

[2018-06-21 19:59:44 416] Binding[10 325 638]
0A23203333302E303030302020202020203636300D
[2018-06-21 19:59:45 422] UART Recv: @3[
# 330.0000      660
]

[2018-06-21 19:59:45 422] [Texture] analyzecount=1totalrecvcount=67

[2018-06-21 19:59:45 422] Chart RealTime update[start @66rowsCount=67]

[2018-06-21 19:59:45 422] Binding[10 330 660]
0A23203333352E303030302020202020203634370D
[2018-06-21 19:59:46 427] UART Recv: @3[
# 335.0000      647
]

[2018-06-21 19:59:46 427] [Texture] analyzecount=1totalrecvcount=68

[2018-06-21 19:59:46 427] Chart RealTime update[start @67rowsCount=68]

[2018-06-21 19:59:46 427] Binding[10 335 647]
0A23203334302E303030302020202020203637340D
[2018-06-21 19:59:47 417] UART Recv: @3[
# 340.0000      674
]

[2018-06-21 19:59:47 417] [Texture] analyzecount=1totalrecvcount=69

[2018-06-21 19:59:47 417] Chart RealTime update[start @68rowsCount=69]

[2018-06-21 19:59:47 417] Binding[10 340 674]
0A23203334352E303030302020202020203631340D
[2018-06-21 19:59:48 423] UART Recv: @3[
# 345.0000      614
]

[2018-06-21 19:59:48 423] [Texture] analyzecount=1totalrecvcount=70

[2018-06-21 19:59:48 423] Chart RealTime update[start @69rowsCount=70]

[2018-06-21 19:59:48 423] Binding[10 345 614]
0A23203335302E303030302020202020203630320D
[2018-06-21 19:59:49 429] UART Recv: @3[
# 350.0000      602
]

[2018-06-21 19:59:49 429] [Texture] analyzecount=1totalrecvcount=71

[2018-06-21 19:59:49 429] Chart RealTime update[start @70rowsCount=71]

[2018-06-21 19:59:49 429] Binding[10 350 602]
0A23203335352E303030302020202020203635340D0A46697665422D4F4B0D0A433D
[2018-06-21 19:59:50 435] UART Recv: @3[
# 355.0000      654
FiveB-OK
C=]

[2018-06-21 19:59:50 435] [Texture] analyzecount=1totalrecvcount=72

[2018-06-21 19:59:50 436] Chart RealTime update[start @71rowsCount=72]

[2018-06-21 19:59:50 436] Binding[10 355 654]
5348430D
[2018-06-21 19:59:54 171] UART Recv: @3[SHC
]
5348430D
[2018-06-21 19:59:54 207] UART Send: [SHC
]
0A433D
[2018-06-21 19:59:54 315] UART Recv: @3[
C=]
534B4D3020300D
[2018-06-21 19:59:54 316] UART Send: [SKM0 0
]
534B4D3020300D
[2018-06-21 19:59:54 442] UART Recv: @3[SKM0 0
]
0A433D
[2018-06-21 19:59:56 151] UART Recv: @3[
C=]

[2018-06-21 19:59:56 214] [Parent] voltage update

[2018-06-21 20:03:06 311] [Parent] closing
[2018-06-21 20:03:06 311]Log End******************************************************

File: LDA_sample_name_01_Psi-0_20180623-132304.txt
143.0000   21545
143.0800   20516
143.1600   20850
143.2400   21243
143.3200   20927
143.4000   20394
143.4800   19893
143.5600   18371
143.6400   18477
143.7200   16934
143.8000   15435
143.8800   15324
143.9600   14575
144.0400   13319
144.1200   13139
144.2000   12097
144.2800   11633
144.3600   11439
144.4400   10757
144.5200    9942
144.6000    9595
144.6800    8470
144.7600    8014
144.8400    7502
144.9200    6847
145.0000    6475
145.0800    5881
145.1600    5107
145.2400    4715
145.3200    4091
145.4000    3583
145.4800    3243
145.5600    2907
145.6400    2664
145.7200    2419
145.8000    2012
145.8800    2013
145.9600    1910
146.0400    1601
146.1200    1344
146.2000    1525
146.2800    1304
146.3600    1218
146.4400    1135
146.5200    1085
146.6000     940
146.6800     826
146.7600     882
146.8400     871
146.9200     789
147.0000     875
147.0800     859
147.1600     782
147.2400     729
147.3200     838
147.4000     752
147.4800     780
147.5600     711
147.6400     691
147.7200     673
147.8000     627
147.8800     648
147.9600     612
148.0400     702
148.1200     592
148.2000     589
148.2800     550
148.3600     565
148.4400     612
148.5200     461
148.6000     579
148.6800     507
148.7600     507
148.8400     597
148.9200     416
149.0000     515
149.0800     498
149.1600     501
149.2400     492
149.3200     607
149.4000     520
149.4800     421
149.5600     548
149.6400     432
149.7200     468
149.8000     454
149.8800     458
149.9600     524
150.0400     458
150.1200     449
150.2000     451
150.2800     449
150.3600     394
150.4400     488
150.5200     420
150.6000     417
150.6800     479
150.7600     416
150.8400     466
150.9200     485
151.0000     463
151.0800     470
151.1600     378
151.2400     413
151.3200     439
151.4000     497
151.4800     404
151.5600     346
151.6400     336
151.7200     543
151.8000     440
151.8800     431
151.9600     334
152.0400     370
152.1200     352
152.2000     383
152.2800     328
152.3600     362
152.4400     469
152.5200     326
152.6000     414
152.6800     367
152.7600     419
152.8400     384
152.9200     398
153.0000     349
153.0800     397
153.1600     207
153.2400     391
153.3200     337
153.4000     342
153.4800     422
153.5600     355
153.6400     354
153.7200     381
153.8000     380
153.8800     303
153.9600     275
154.0400     335
154.1200     252
154.2000     297
154.2800     309
154.3600     327
154.4400     308
154.5200     268
154.6000     316
154.6800     318
154.7600     364
154.8400     288
154.9200     350
155.0000     307
155.0800     406
155.1600     279
155.2400     258
155.3200     287
155.4000     249
155.4800     208
155.5600     359
155.6400     289
155.7200     282
155.8000     260
155.8800     198
155.9600     219
156.0400     295
156.1200     222
156.2000     286
156.2800     217
156.3600     165
156.4400     150
156.5200     189
156.6000     288
156.6800     292
156.7600     209
156.8400     339
156.9200     192
157.0000     252
157.0800     219
157.1600     232
157.2400     243
157.3200     230
157.4000     161
157.4800     223
157.5600     283
157.6400     208
157.7200     287
157.8000     152
157.8800     201
157.9600     245
158.0400     225
158.1200     266
158.2000     209
158.2800     240
158.3600     228
158.4400     211
158.5200     230
158.6000     123
158.6800     237
158.7600     177
158.8400     252
158.9200     210
159.0000      98
159.0800     187
159.1600     191
159.2400     244
159.3200     225
159.4000     223
159.4800     202
159.5600     239
159.6400     204
159.7200     210
159.8000     100
159.8800     158
159.9600     224
160.0400     239
160.1200     180
160.2000     251
160.2800     191
160.3600     210
160.4400     262
160.5200     192
160.6000     213
160.6800     235
160.7600     191
160.8400     129
160.9200     248
161.0000     275
161.0800     241
161.1600     124
161.2400     173
161.3200     205
161.4000     206
161.4800     123
161.5600     196
161.6400     188
161.7200     164
161.8000     110
161.8800     232
161.9600     155
162.0400     164
162.1200     224
162.2000     168
162.2800     176
162.3600     123
162.4400     203
162.5200     202
162.6000     157
162.6800     198
162.7600     215
162.8400     160
162.9200     208
163.0000     202
163.0800     137
163.1600     191
163.2400     202
163.3200     186
163.4000     208
163.4800     128
163.5600     169
163.6400     155
163.7200     243
163.8000     137
163.8800     133
163.9600     201
164.0400     160
164.1200     169
164.2000     155
164.2800     237
164.3600     215
164.4400     143
164.5200     128
164.6000     188
164.6800     174
164.7600     145
164.8400     144
164.9200     177
165.0000     169
165.0800     134
165.1600      83
165.2400     171
165.3200     131
165.4000     186
165.4800     125
165.5600     168
165.6400     127
165.7200     211
165.8000     143
165.8800     155
165.9600     114
166.0400      98
166.1200     120
166.2000     134
166.2800      85
166.3600     118
166.4400     155
166.5200      67
166.6000     107
166.6800     153
166.7600     171
166.8400     136
166.9200     145
166.9800     104

File: LDA_sample_name_01_Psi-24_20180623-132321.txt
143.0000     269
143.0800     215
143.1600     258
143.2400     291
143.3200     300
143.4000     207
143.4800     219
143.5600     242
143.6400     147
143.7200     237
143.8000     214
143.8800     193
143.9600     158
144.0400     295
144.1200     248
144.2000     311
144.2800     171
144.3600     160
144.4400     269
144.5200     214
144.6000     223
144.6800     187
144.7600     195
144.8400     232
144.9200     211
145.0000     195
145.0800     125
145.1600     215
145.2400     182
145.3200     211
145.4000     215
145.4800     204
145.5600     202
145.6400     238
145.7200     204
145.8000     241
145.8800     261
145.9600     234
146.0400     216
146.1200     139
146.2000     252
146.2800     192
146.3600     224
146.4400     190
146.5200     173
146.6000     255
146.6800     246
146.7600     187
146.8400     171
146.9200     213
147.0000     237
147.0800     194
147.1600     221
147.2400     201
147.3200     233
147.4000     180
147.4800     211
147.5600     159
147.6400     244
147.7200     219
147.8000     270
147.8800     246
147.9600     182
148.0400     203
148.1200      98
148.2000     224
148.2800     232
148.3600     177
148.4400     139
148.5200     222
148.6000     223
148.6800     222
148.7600     197
148.8400     238
148.9200     258
149.0000     212
149.0800     235
149.1600     242
149.2400     191
149.3200     163
149.4000     307
149.4800     193
149.5600     169
149.6400     211
149.7200     220
149.8000     208
149.8800     187
149.9600     204
150.0400     272
150.1200     223
150.2000     241
150.2800     187
150.3600     173
150.4400     237
150.5200     217
150.6000     317
150.6800     190
150.7600     225
150.8400     235
150.9200     187
151.0000     268
151.0800     240
151.1600     257
151.2400     267
151.3200     253
151.4000     213
151.4800     269
151.5600     189
151.6400     178
151.7200     233
151.8000     175
151.8800     233
151.9600     185
152.0400     185
152.1200      89
152.2000     240
152.2800     214
152.3600     221
152.4400      99
152.5200     234
152.6000     270
152.6800     284
152.7600     158
152.8400     203
152.9200     212
153.0000     221
153.0800     276
153.1600     224
153.2400     218
153.3200     225
153.4000     238
153.4800     195
153.5600     247
153.6400     285
153.7200     185
153.8000     231
153.8800     280
153.9600     208
154.0400     231
154.1200     257
154.2000     199
154.2800     228
154.3600     183
154.4400     230
154.5200     165
154.6000     182
154.6800     234
154.7600     183
154.8400     186
154.9200     174
155.0000     228
155.0800     233
155.1600     197
155.2400     140
155.3200     208
155.4000     236
155.4800     277
155.5600     181
155.6400     108
155.7200     186
155.8000     203
155.8800     148
155.9600     180
156.0400     146
156.1200     182
156.2000     267
156.2800     184
156.3600     161
156.4400     203
156.5200     184
156.6000     254
156.6800     201
156.7600     137
156.8400     170
156.9200     108
157.0000     222
157.0800     196
157.1600     201
157.2400     192
157.3200     280
157.4000     162
157.4800     185
157.5600     124
157.6400     192
157.7200     235
157.8000     205
157.8800      77
157.9600     173
158.0400     191
158.1200     194
158.2000     176
158.2800     142
158.3600     203
158.4400     251
158.5200     155
158.6000     216
158.6800     141
158.7600     195
158.8400     204
158.9200     161
159.0000     145
159.0800     203
159.1600     200
159.2400     169
159.3200     235
159.4000     261
159.4800     264
159.5600     265
159.6400     160
159.7200     149
159.8000     226
159.8800     219
159.9600     154
160.0400     157
160.1200     282
160.2000     181
160.2800     220
160.3600     154
160.4400     219
160.5200     186
160.6000     196
160.6800     161
160.7600     174
160.8400     155
160.9200     106
161.0000     155
161.0800     176
161.1600     113
161.2400     185
161.3200     200
161.4000     209
161.4800     117
161.5600     121
161.6400      96
161.7200     139
161.8000     148
161.8800     212
161.9600     120
162.0400     146
162.1200      95
162.2000     111
162.2800     139
162.3600     141
162.4400     168
162.5200     101
162.6000     158
162.6800     179
162.7600     187
162.8400     225
162.9200     183
163.0000     197
163.0800     160
163.1600     124
163.2400     132
163.3200     123
163.4000     121
163.4800     178
163.5600     171
163.6400     139
163.7200     160
163.8000     140
163.8800     137
163.9600     166
164.0400     180
164.1200     175
164.2000     213
164.2800     156
164.3600     140
164.4400     147
164.5200     132
164.6000      67
164.6800     119
164.7600      91
164.8400     100
164.9200      92
165.0000      91
165.0800     101
165.1600     126
165.2400     139
165.3200     155
165.4000     163
165.4800     120
165.5600     172
165.6400     157
165.7200     128
165.8000      68
165.8800     102
165.9600     147
166.0400     191
166.1200      48
166.2000      80
166.2800     140
166.3600      80
166.4400     130
166.5200     120
166.6000      95
166.6800      80
166.7600     126
166.8400     132
166.9200     110
166.9800     176