Folder: xrd/XRD_Tool/log (part 3)

File: LDA_sample_name_01_Psi-35_20180623-132334.txt
143.0000     248
143.0800     201
143.1600     267
143.2400     201
143.3200     247
143.4000     243
143.4800     250
143.5600     212
143.6400     172
143.7200     230
143.8000     334
143.8800     207
143.9600     235
144.0400     126
144.1200     233
144.2000     227
144.2800     257
144.3600     248
144.4400     158
144.5200     153
144.6000     233
144.6800     228
144.7600     233
144.8400     270
144.9200     234
145.0000     158
145.0800     246
145.1600     206
145.2400     267
145.3200     161
145.4000     184
145.4800     162
145.5600     157
145.6400     189
145.7200     240
145.8000     244
145.8800     208
145.9600     201
146.0400     207
146.1200     224
146.2000     239
146.2800     176
146.3600     237
146.4400     176
146.5200     308
146.6000     170
146.6800     138
146.7600     228
146.8400     165
146.9200     238
147.0000     286
147.0800     195
147.1600     235
147.2400     251
147.3200     243
147.4000     194
147.4800     237
147.5600     211
147.6400     202
147.7200     306
147.8000     239
147.8800     135
147.9600     244
148.0400     220
148.1200     280
148.2000     209
148.2800     239
148.3600     209
148.4400     217
148.5200     116
148.6000     164
148.6800     267
148.7600     128
148.8400     231
148.9200     239
149.0000     237
149.0800     317
149.1600     268
149.2400     265
149.3200     249
149.4000     243
149.4800     193
149.5600     244
149.6400     261
149.7200     147
149.8000     193
149.8800     184
149.9600     270
150.0400     242
150.1200     210
150.2000     299
150.2800     187
150.3600     100
150.4400     237
150.5200     225
150.6000     215
150.6800     200
150.7600     239
150.8400     252
150.9200     156
151.0000     248
151.0800     151
151.1600     256
151.2400     247
151.3200     173
151.4000     202
151.4800     205
151.5600     263
151.6400     215
151.7200     183
151.8000     237
151.8800     230
151.9600     194
152.0400     200
152.1200     181
152.2000     216
152.2800     248
152.3600     247
152.4400     169
152.5200     252
152.6000     190
152.6800     180
152.7600     228
152.8400     219
152.9200     109
153.0000     211
153.0800     227
153.1600     182
153.2400     258
153.3200     231
153.4000     191
153.4800     195
153.5600     200
153.6400     167
153.7200     261
153.8000     236
153.8800     186
153.9600     206
154.0400     191
154.1200     192
154.2000     211
154.2800     159
154.3600     208
154.4400     202
154.5200     199
154.6000     210
154.6800     210
154.7600     209
154.8400     207
154.9200     193
155.0000     241
155.0800     184
155.1600     135
155.2400     161
155.3200     199
155.4000     180
155.4800     185
155.5600     253
155.6400     269
155.7200     167
155.8000     274
155.8800     214
155.9600     155
156.0400     192
156.1200     211
156.2000     228
156.2800     120
156.3600     184
156.4400     182
156.5200     239
156.6000     119
156.6800     204
156.7600     206
156.8400     228
156.9200     245
157.0000     156
157.0800     259
157.1600     231
157.2400     268
157.3200     224
157.4000     165
157.4800     159
157.5600     169
157.6400     211
157.7200     201
157.8000     223
157.8800     205
157.9600     269
158.0400     269
158.1200     213
158.2000     112
158.2800     238
158.3600     219
158.4400     218
158.5200     164
158.6000     219
158.6800     214
158.7600     208
158.8400     129
158.9200     130
159.0000     171
159.0800     219
159.1600     218
159.2400     169
159.3200     167
159.4000     233
159.4800      99
159.5600     146
159.6400     236
159.7200     193
159.8000     202
159.8800     258
159.9600     162
160.0400     184
160.1200     153
160.2000     185
160.2800     191
160.3600     174
160.4400     111
160.5200     231
160.6000     112
160.6800     181
160.7600     171
160.8400     144
160.9200     211
161.0000     218
161.0800     134
161.1600     155
161.2400     129
161.3200     278
161.4000     184
161.4800     130
161.5600     234
161.6400     194
161.7200     105
161.8000     225
161.8800     183
161.9600      88
162.0400     127
162.1200      88
162.2000     109
162.2800     177
162.3600     152
162.4400     144
162.5200     154
162.6000     146
162.6800     166
162.7600     165
162.8400     148
162.9200     114
163.0000     175
163.0800     144
163.1600     171
163.2400     183
163.3200     139
163.4000     171
163.4800     207
163.5600      98
163.6400     178
163.7200     153
163.8000     112
163.8800     155
163.9600     132
164.0400     130
164.1200     160
164.2000     186
164.2800     263
164.3600     189
164.4400     122
164.5200     205
164.6000     163
164.6800      59
164.7600     137
164.8400     121
164.9200     133
165.0000     131
165.0800     196
165.1600     114
165.2400     170
165.3200     109
165.4000     128
165.4800     164
165.5600     138
165.6400      93
165.7200     113
165.8000     106
165.8800     177
165.9600     127
166.0400     116
166.1200      84
166.2000      67
166.2800     164
166.3600     119
166.4400      98
166.5200      95
166.6000     112
166.6800     139
166.7600      94
166.8400     140
166.9200     161
166.9800      93

File: LDA_sample_name_01_Psi-45_20180623-132346.txt
143.0000     231
143.0800     270
143.1600     157
143.2400     256
143.3200     221
143.4000     235
143.4800     242
143.5600     176
143.6400     199
143.7200     230
143.8000     248
143.8800     193
143.9600     211
144.0400     154
144.1200     179
144.2000     233
144.2800     218
144.3600     205
144.4400     239
144.5200     235
144.6000     210
144.6800     159
144.7600     203
144.8400     200
144.9200     232
145.0000     276
145.0800     240
145.1600     246
145.2400     194
145.3200     201
145.4000     252
145.4800     261
145.5600     253
145.6400     250
145.7200     254
145.8000     234
145.8800     150
145.9600     205
146.0400     219
146.1200     303
146.2000     282
146.2800     217
146.3600     180
146.4400     293
146.5200     231
146.6000     144
146.6800     207
146.7600     245
146.8400     259
146.9200     211
147.0000     208
147.0800     208
147.1600     196
147.2400     181
147.3200     280
147.4000     272
147.4800     212
147.5600     257
147.6400     225
147.7200     269
147.8000     200
147.8800     210
147.9600     230
148.0400     256
148.1200     217
148.2000     209
148.2800     194
148.3600     239
148.4400     237
148.5200     185
148.6000     238
148.6800     249
148.7600     181
148.8400     289
148.9200     167
149.0000     245
149.0800     207
149.1600     251
149.2400     222
149.3200     235
149.4000     202
149.4800     240
149.5600     272
149.6400     241
149.7200     199
149.8000     289
149.8800     219
149.9600     266
150.0400     203
150.1200     254
150.2000     191
150.2800     217
150.3600     206
150.4400     233
150.5200     223
150.6000     175
150.6800     234
150.7600     232
150.8400     251
150.9200     244
151.0000     276
151.0800     218
151.1600     209
151.2400     164
151.3200     194
151.4000     190
151.4800     153
151.5600     203
151.6400     219
151.7200     194
151.8000     230
151.8800     187
151.9600     247
152.0400     186
152.1200     236
152.2000     192
152.2800     197
152.3600     258
152.4400     200
152.5200     222
152.6000     250
152.6800     230
152.7600     180
152.8400     250
152.9200     240
153.0000     213
153.0800     220
153.1600     148
153.2400     218
153.3200     230
153.4000     241
153.4800     242
153.5600     178
153.6400     262
153.7200     198
153.8000     230
153.8800     179
153.9600     169
154.0400     249
154.1200     172
154.2000     184
154.2800     186
154.3600     161
154.4400     215
154.5200     243
154.6000     219
154.6800     164
154.7600     167
154.8400     241
154.9200     272
155.0000     216
155.0800     216
155.1600     165
155.2400     186
155.3200     275
155.4000     264
155.4800     230
155.5600     236
155.6400     158
155.7200     121
155.8000     153
155.8800     184
155.9600     153
156.0400     181
156.1200     163
156.2000     206
156.2800     229
156.3600     211
156.4400     236
156.5200     177
156.6000     251
156.6800     182
156.7600     199
156.8400     184
156.9200     169
157.0000     218
157.0800     187
157.1600     164
157.2400     190
157.3200     144
157.4000     198
157.4800     186
157.5600     203
157.6400     231
157.7200     172
157.8000     177
157.8800     221
157.9600     245
158.0400     235
158.1200     185
158.2000     107
158.2800     192
158.3600     231
158.4400     246
158.5200     210
158.6000     215
158.6800     261
158.7600     251
158.8400     242
158.9200     225
159.0000     139
159.0800     193
159.1600     193
159.2400     214
159.3200     192
159.4000     162
159.4800     229
159.5600     133
159.6400     183
159.7200     155
159.8000     214
159.8800     189
159.9600     190
160.0400     160
160.1200     175
160.2000     128
160.2800     180
160.3600     139
160.4400     216
160.5200     147
160.6000     171
160.6800     218
160.7600     247
160.8400     167
160.9200     157
161.0000     204
161.0800     201
161.1600     206
161.2400     169
161.3200     242
161.4000     165
161.4800     184
161.5600      95
161.6400     200
161.7200     149
161.8000     153
161.8800     146
161.9600     178
162.0400     165
162.1200     156
162.2000     198
162.2800     122
162.3600     194
162.4400     181
162.5200     132
162.6000     111
162.6800     203
162.7600     112
162.8400     160
162.9200     134
163.0000     174
163.0800     124
163.1600     135
163.2400      83
163.3200     136
163.4000     135
163.4800     110
163.5600     189
163.6400     182
163.7200     165
163.8000     121
163.8800     174
163.9600     183
164.0400     193
164.1200     137
164.2000     146
164.2800     149
164.3600     226
164.4400     112
164.5200     119
164.6000     108
164.6800      99
164.7600     154
164.8400     173
164.9200     129
165.0000     113
165.0800     211
165.1600     122
165.2400     163
165.3200     130
165.4000     107
165.4800     136
165.5600     105
165.6400      97
165.7200     148
165.8000      74
165.8800     158
165.9600      87
166.0400     210
166.1200     144
166.2000     115
166.2800      70
166.3600      97
166.4400     133
166.5200     119
166.6000     112
166.6800      71
166.7600     181
166.8400      48
166.9200     102
166.9800      79

File: LDA_sample_name_56789_Psi-0_20180623-130348.txt
138.0000     588
138.0800     625
138.1600     583
138.2400     651
138.3200     641
138.4000     690
138.4800     723
138.5600     766
138.6400     847
138.7200     804
138.8000     796
138.8800     632
138.9600     808
139.0400     775
139.1200     858
139.2000     867
139.2800     913
139.3600     941
139.4400     952
139.5200     989
139.6000     827
139.6800     947
139.7600     981
139.8400    1014
139.9200     978
140.0000    1034
140.0800    1052
140.1600     988
140.2400     987
140.3200    1035
140.4000     801
140.4800    1016
140.5600     963
140.6400     922
140.7200     940
140.8000     827
140.8800     871
140.9600     876
141.0400     858
141.1200     817
141.2000     867
141.2800     882
141.3600     833
141.4400     726
141.5200     744
141.6000     723
141.6800     654
141.7600     652
141.8400     629
141.9200     657
142.0000     627
142.0800     621
142.1600     632
142.2400     643
142.3200     671
142.4000     655
142.4800     516
142.5600     579
142.6400     566
142.7200     527
142.8000     481
142.8800     532
142.9600     547
143.0400     565
143.1200     437
143.2000     501
143.2800     473
143.3600     408
143.4400     390
143.5200     461
143.6000     365
143.6800     407
143.7600     395
143.8400     438
143.9200     391
144.0000     353
144.0800     408
144.1600     336
144.2400     360
144.3200     365
144.4000     406
144.4800     379
144.5600     344
144.6400     386
144.7200     322
144.8000     292
144.8800     320
144.9600     327
145.0400     342
145.1200     281
145.2000     323
145.2800     272
145.3600     354
145.4400     269
145.5200     229
145.6000     301
145.6800     265
145.7600     285
145.8400     270
145.9200     213
146.0000     256
146.0800     287
146.1600     236
146.2400     241
146.3200     256
146.4000     257
146.4800     205
146.5600     252
146.6400     259
146.7200     238
146.8000     251
146.8800     220
146.9600     260
147.0400     238
147.1200     246
147.2000     202
147.2800     152
147.3600     158
147.4400     230
147.5200     239
147.6000     230
147.6800     250
147.7600     290
147.8400     197
147.9200     182
148.0000     245
148.0800     157
148.1600     157
148.2400     221
148.3200     143
148.4000     227
148.4800     268
148.5600     208
148.6400     195
148.7200     265
148.8000     238
148.8800     237
148.9600     184
149.0400     172
149.1200     148
149.2000     227
149.2800     178
149.3600     217
149.4400     198
149.5200     168
149.6000     203
149.6800     144
149.7600     217
149.8400     183
149.9200     162
150.0000      85
150.0800     179
150.1600     162
150.2400     197
150.3200     188
150.4000     144
150.4800     182
150.5600     227
150.6400     168
150.7200     191
150.8000     166
150.8800     142
150.9600     144
151.0400     174
151.1200     194
151.2000     221
151.2800     203
151.3600     222
151.4400     190
151.5200     175
151.6000     216
151.6800     160
151.7600     155
151.8400     158
151.9200     181
152.0000     213
152.0800     222
152.1600     178
152.2400     213
152.3200     217
152.4000     189
152.4800     184
152.5600     167
152.6400     193
152.7200     154
152.8000     195
152.8800     184
152.9600     108
153.0400     219
153.1200     155
153.2000     102
153.2800     200
153.3600     199
153.4400     158
153.5200     203
153.6000     158
153.6800     137
153.7600     116
153.8400     174
153.9200     182
154.0000     152
154.0800     188
154.1600     225
154.2400      86
154.3200     150
154.4000      94
154.4800     241
154.5600     124
154.6400     159
154.7200     158
154.8000     118
154.8800     114
154.9600     120
155.0400     200
155.1200     144
155.2000     159
155.2800      93
155.3600     180
155.4400     168
155.5200     129
155.6000     153
155.6800      94
155.7600     127
155.8400     146
155.9200     157
156.0000     140
156.0800     134
156.1600     170
156.2400     104
156.3200     191
156.4000     107
156.4800     171
156.5600      87
156.6400     141
156.7200     118
156.8000     120
156.8800     133
156.9600     136
157.0400      91
157.1200     119
157.2000     125
157.2800     168
157.3600     142
157.4400     155
157.5200     119
157.6000     162
157.6800     141
157.7600     130
157.8400     138
157.9200     201
158.0000     145
158.0800     102
158.1600     158
158.2400     189
158.3200     132
158.4000      50
158.4800     115
158.5600     150
158.6400     143
158.7200     100
158.8000     145
158.8800     107
158.9600     115
159.0400     148
159.1200      89
159.2000      64
159.2800     165
159.3600     152
159.4400      86
159.5200     142
159.6000     152
159.6800     130
159.7600      87
159.8400     119
159.9200     160
160.0000     115
160.0800     113
160.1600      90
160.2400     139
160.3200      57
160.4000     128
160.4800      88
160.5600      94
160.6400      93
160.7200     128
160.8000     154
160.8800     106
160.9600     120
161.0400     127
161.1200      64
161.2000     135
161.2800     153
161.3600      64
161.4400     104
161.5200     113
161.6000     140
161.6800      69
161.7600      78
161.8400     152
161.9200     120
161.9800     110

File: LDA_sample_name_56789_Psi-0_20180623-130425.txt
138.0000     260
138.0800     246
138.1600     279
138.2400     307
138.3200     324
138.4000     260
138.4800     320
138.5600     324
138.6400     317
138.7200     354
138.8000     338
138.8800     329
138.9600     273
139.0400     330
139.1200     333
139.2000     439
139.2800     376
139.3600     382
139.4400     377
139.5200     367
139.6000     417
139.6800     370
139.7600     447
139.8400     426
139.9200     372
140.0000     423
140.0800     530
140.1600     481
140.2400     539
140.3200     472
140.4000     513
140.4800     476
140.5600     576
140.6400     632
140.7200     647
140.8000     648
140.8800     748
140.9600     751
141.0400     728
141.1200     837
141.2000     887
141.2800     997
141.3600    1021
141.4400     995
141.5200    1080
141.6000    1295
141.6800    1192
141.7600    1529
141.8400    1523
141.9200    1531
142.0000    1714
142.0800    2010
142.1600    2016
142.2400    2147
142.3200    2797
142.4000    2605
142.4800    2624
142.5600    2921
142.6400    2703
142.7200    2791
142.8000    2750
142.8800    2903
142.9600    2615
143.0400    2676
143.1200    2532
143.2000    2609
143.2800    2263
143.3600    2210
143.4400    2022
143.5200    2091
143.6000    1912
143.6800    1786
143.7600    1692
143.8400    1465
143.9200    1434
144.0000    1313
144.0800    1183
144.1600    1301
144.2400    1187
144.3200    1032
144.4000    1001
144.4800    1016
144.5600     943
144.6400     831
144.7200     833
144.8000     779
144.8800     744
144.9600     587
145.0400     529
145.1200     505
145.2000     436
145.2800     487
145.3600     393
145.4400     396
145.5200     389
145.6000     321
145.6800     274
145.7600     321
145.8400     274
145.9200     246
146.0000     214
146.0800     206
146.1600     178
146.2400     186
146.3200     151
146.4000     260
146.4800     114
146.5600     160
146.6400     169
146.7200     178
146.8000     181
146.8800     178
146.9600     134
147.0400     148
147.1200     137
147.2000     143
147.2800     135
147.3600     122
147.4400     142
147.5200     175
147.6000     148
147.6800     156
147.7600     115
147.8400     146
147.9200     141
148.0000      96
148.0800     136
148.1600     135
148.2400     124
148.3200      54
148.4000     122
148.4800     113
148.5600      84
148.6400     129
148.7200      90
148.8000      86
148.8800     134
148.9600      95
149.0400     157
149.1200     125
149.2000     110
149.2800     145
149.3600      97
149.4400      76
149.5200     100
149.6000     105
149.6800      96
149.7600     119
149.8400     137
149.9200     124
150.0000     100
150.0800     119
150.1600     127
150.2400      88
150.3200     157
150.4000      82
150.4800     135
150.5600     136
150.6400     126
150.7200     164
150.8000     106
150.8800     126
150.9600     148
151.0400     114
151.1200     124
151.2000     123
151.2800     122
151.3600      75
151.4400     107
151.5200     150
151.6000     104
151.6800     158
151.7600     119
151.8400     111
151.9200     132
152.0000      87
152.0800     109
152.1600     146
152.2400      99
152.3200     120
152.4000     141
152.4800     103
152.5600     138
152.6400     151
152.7200     102
152.8000      66
152.8800     128
152.9600     118
153.0400     167
153.1200      47
153.2000      83
153.2800     181
153.3600      79
153.4400     107
153.5200      89
153.6000     147
153.6800     146
153.7600     149
153.8400     111
153.9200     123
154.0000      52
154.0800     101
154.1600      87
154.2400      83
154.3200     129
154.4000     116
154.4800     107
154.5600     122
154.6400      78
154.7200     118
154.8000     121
154.8800      78
154.9600      77
155.0400      81
155.1200     133
155.2000      99
155.2800      48
155.3600     109
155.4400     111
155.5200      87
155.6000     105
155.6800      66
155.7600     101
155.8400     106
155.9200      64
156.0000      68
156.0800     105
156.1600     100
156.2400     122
156.3200     109
156.4000     119
156.4800      90
156.5600      99
156.6400     120
156.7200     115
156.8000      67
156.8800      59
156.9600      50
157.0400      61
157.1200      83
157.2000     115
157.2800     113
157.3600      95
157.4400      91
157.5200      94
157.6000     108
157.6800      99
157.7600      73
157.8400     139
157.9200     101
158.0000     111
158.0800      90
158.1600      82
158.2400      51
158.3200      92
158.4000      81
158.4800     103
158.5600     101
158.6400      58
158.7200      91
158.8000      47
158.8800      93
158.9600      68
159.0400      98
159.1200     105
159.2000     106
159.2800      94
159.3600     121
159.4400     117
159.5200     122
159.6000      29
159.6800      54
159.7600      70
159.8400      66
159.9200      69
160.0000      79
160.0800      65
160.1600     102
160.2400      85
160.3200      99
160.4000      21
160.4800      61
160.5600      77
160.6400      63
160.7200     102
160.8000      82
160.8800      98
160.9600      90
161.0400      76
161.1200      56
161.2000      82
161.2800     112
161.3600      92
161.4400      38
161.5200      55
161.6000      30
161.6800     103
161.7600      48
161.8400      85
161.9200      77
161.9800      64

File: LDA_sample_name_56789_Psi-0_20180623-130825.txt
138.0000     573
138.0800     615
138.1600     653
138.2400     663
138.3200     638
138.4000     726
138.4800     722
138.5600     694
138.6400     718
138.7200     720
138.8000     719
138.8800     851
138.9600     812
139.0400     857
139.1200     926
139.2000     817
139.2800     978
139.3600    1001
139.4400     927
139.5200    1015
139.6000     998
139.6800     879
139.7600    1072
139.8400     938
139.9200     991
140.0000    1062
140.0800     987
140.1600     971
140.2400     997
140.3200     849
140.4000     873
140.4800     962
140.5600    1028
140.6400     980
140.7200     856
140.8000     863
140.8800     844
140.9600     874
141.0400     785
141.1200     822
141.2000     996
141.2800     885
141.3600     808
141.4400     750
141.5200     755
141.6000     726
141.6800     597
141.7600     718
141.8400     541
141.9200     653
142.0000     591
142.0800     701
142.1600     646
142.2400     636
142.3200     697
142.4000     549
142.4800     685
142.5600     536
142.6400     549
142.7200     524
142.8000     526
142.8800     520
142.9600     526
143.0400     467
143.1200     410
143.2000     397
143.2800     517
143.3600     514
143.4400     442
143.5200     430
143.6000     355
143.6800     396
143.7600     375
143.8400     301
143.9200     352
144.0000     406
144.0800     294
144.1600     302
144.2400     353
144.3200     323
144.4000     336
144.4800     328
144.5600     290
144.6400     250
144.7200     316
144.8000     304
144.8800     319
144.9600     262
145.0400     340
145.1200     335
145.2000     274
145.2800     282
145.3600     222
145.4400     328
145.5200     199
145.6000     267
145.6800     259
145.7600     257
145.8400     188
145.9200     209
146.0000     179
146.0800     230
146.1600     277
146.2400     210
146.3200     223
146.4000     234
146.4800     259
146.5600     244
146.6400     217
146.7200     244
146.8000     241
146.8800     127
146.9600     213
147.0400     185
147.1200     193
147.2000     186
147.2800     182
147.3600     212
147.4400     216
147.5200     238
147.6000     252
147.6800     196
147.7600     201
147.8400     228
147.9200     209
148.0000     293
148.0800     156
148.1600     197
148.2400     188
148.3200     212
148.4000     240
148.4800     165
148.5600     213
148.6400     215
148.7200     165
148.8000     176
148.8800     218
148.9600     178
149.0400     224
149.1200      90
149.2000     188
149.2800     151
149.3600     193
149.4400     228
149.5200     158
149.6000     188
149.6800     177
149.7600     179
149.8400     195
149.9200     132
150.0000     241
150.0800     166
150.1600     146
150.2400     149
150.3200     185
150.4000     135
150.4800     146
150.5600     218
150.6400     128
150.7200     167
150.8000     177
150.8800     164
150.9600     153
151.0400     127
151.1200     184
151.2000     206
151.2800     101
151.3600     143
151.4400     202
151.5200     170
151.6000     135
151.6800     106
151.7600     112
151.8400     168
151.9200     157
152.0000     166
152.0800     104
152.1600     177
152.2400     167
152.3200     149
152.4000     161
152.4800      99
152.5600     129
152.6400     160
152.7200     214
152.8000     165
152.8800     134
152.9600     146
153.0400     147
153.1200     156
153.2000     137
153.2800     181
153.3600     146
153.4400     163
153.5200     179
153.6000     147
153.6800     178
153.7600     142
153.8400     133
153.9200     120
154.0000     101
154.0800     164
154.1600     132
154.2400     111
154.3200     149
154.4000     121
154.4800     161
154.5600     172
154.6400     101
154.7200      81
154.8000      75
154.8800     129
154.9600     155
155.0400     178
155.1200     144
155.2000     184
155.2800     155
155.3600     175
155.4400     125
155.5200     108
155.6000     143
155.6800     142
155.7600     142
155.8400      85
155.9200     106
156.0000     169
156.0800     126
156.1600      94
156.2400      82
156.3200     161
156.4000     141
156.4800      76
156.5600     114
156.6400     119
156.7200      55
156.8000     103
156.8800     145
156.9600     106
157.0400     158
157.1200     118
157.2000     101
157.2800     114
157.3600     100
157.4400      80
157.5200      87
157.6000     150
157.6800     134
157.7600     175
157.8400     130
157.9200     177
158.0000     207
158.0800     165
158.1600     166
158.2400     110
158.3200     126
158.4000     148
158.4800     104
158.5600     119
158.6400      91
158.7200     173
158.8000     145
158.8800     145
158.9600      66
159.0400     138
159.1200      25
159.2000      82
159.2800     124
159.3600      92
159.4400      89
159.5200     127
159.6000     103
159.6800     156
159.7600     132
159.8400     172
159.9200     127
160.0000      72
160.0800     112
160.1600     117
160.2400      70
160.3200     115
160.4000     123
160.4800      79
160.5600     140
160.6400      65
160.7200      99
160.8000      54
160.8800      77
160.9600     109
161.0400     119
161.1200     116
161.2000      97
161.2800     134
161.3600     107
161.4400     109
161.5200      45
161.6000      99
161.6800     121
161.7600      88
161.8400     105
161.9200      74
161.9800     108