Folder: xrd/XRD_Tool/log

Note: XRD_Tool/log/20180616-log.txt
[2018-06-16 15:01:38 099]Log Start******************************************************

[2018-06-16 15:01:45 323] [UserLogin] login succeed!user=administrator,pwd=123456

[2018-06-16 15:01:45 609] [DeviceInit] Init faild, Uart Port not open

[2018-06-16 15:01:47 339] [DeviceInit] Init Skip

[2018-06-16 15:01:51 041] [Parent] Shortcut Init
[2018-06-16 15:01:55 312]Log Start******************************************************

[2018-06-16 15:01:56 161] [UserLogin] login succeed!user=administrator,pwd=123456

[2018-06-16 15:01:56 303] [DeviceInit] Init faild, Uart Port not open

[2018-06-16 15:01:58 013] [DeviceInit] Init Skip

[2018-06-16 15:01:59 069] [Parent] Menu Measure

[2018-06-16 15:01:59 576] [Measure] check 5 Axis=Unchecked

[2018-06-16 15:02:17 744] [Parent] closing
[2018-06-16 15:02:17 744]Log End******************************************************
[2018-06-16 15:03:46 453]Log Start******************************************************

[2018-06-16 15:03:47 567] [UserLogin] login succeed!user=administrator,pwd=123456

[2018-06-16 15:03:47 695] [DeviceInit] Init faild, Uart Port not open

[2018-06-16 15:03:48 897] [DeviceInit] Init Skip

[2018-06-16 15:03:50 806] [Parent] Menu Measure

[2018-06-16 15:03:51 009] [Measure] check 5 Axis=Unchecked

[2018-06-16 15:03:58 243] [Parent] closing
[2018-06-16 15:03:58 244]Log End******************************************************
[2018-06-16 15:15:58 909]Log Start******************************************************

[2018-06-16 15:15:59 866] [UserLogin] login succeed!user=administrator,pwd=123456

[2018-06-16 15:15:59 980] [DeviceInit] Init faild, Uart Port not open

[2018-06-16 15:16:01 681] [DeviceInit] Init Skip

[2018-06-16 15:16:02 775] [Parent] Menu Measure

[2018-06-16 15:16:02 962] [Measure] check 5 Axis=Unchecked

[2018-06-16 15:16:09 981] [Parent] closing
[2018-06-16 15:16:09 982]Log End******************************************************
[2018-06-16 15:16:12 611]Log Start******************************************************

[2018-06-16 15:16:13 522] [UserLogin] login succeed!user=administrator,pwd=123456

[2018-06-16 15:16:13 662] [DeviceInit] Init faild, Uart Port not open

[2018-06-16 15:16:15 807] [DeviceInit] Init Skip

[2018-06-16 15:16:16 962] [Parent] Menu Measure

[2018-06-16 15:16:17 158] [Measure] check 5 Axis=Unchecked

[2018-06-16 15:16:24 207] [Parent] closing
[2018-06-16 15:16:24 208]Log End******************************************************
[2018-06-16 15:16:45 632]Log Start******************************************************

[2018-06-16 15:16:46 478] [UserLogin] login succeed!user=administrator,pwd=123456

[2018-06-16 15:16:46 601] [DeviceInit] Init faild, Uart Port not open

[2018-06-16 15:16:54 891] [DeviceInit] Init Skip

[2018-06-16 15:16:56 090] [Parent] Menu Measure

[2018-06-16 15:16:56 293] [Measure] check 5 Axis=Unchecked
[2018-06-16 15:17:41 838]Log Start*************

Note: XRD_Tool/log/20180618-log.txt
[2018-06-18 13:51:39 236]Log Start******************************************************

[2018-06-18 13:51:40 596] [UserLogin] login succeed!user=administrator,pwd=123456

[2018-06-18 13:51:40 880] [DeviceInit] Init faild, Uart Port not open

[2018-06-18 13:51:43 396] [DeviceInit] Init Skip

[2018-06-18 13:51:44 537] [Parent] Menu Measure

[2018-06-18 13:51:45 115] [Measure] check 5 Axis=Unchecked
[2018-06-18 14:00:48 709]Log Start******************************************************

[2018-06-18 14:00:49 677] [UserLogin] login succeed!user=administrator,pwd=123456

[2018-06-18 14:00:49 802] [DeviceInit] Init faild, Uart Port not open

[2018-06-18 14:00:50 787] [DeviceInit] Init Skip

[2018-06-18 14:00:51 914] [Parent] Menu Measure

[2018-06-18 14:00:52 102] [Measure] check 5 Axis=Unchecked
[2018-06-18 14:52:36 714]Log Start******************************************************

[2018-06-18 14:52:37 574] [UserLogin] login succeed!user=administrator,pwd=123456

[2018-06-18 14:52:37 792] [DeviceInit] Init faild, Uart Port not open

[2018-06-18 14:52:39 152] [DeviceInit] Init Skip

[2018-06-18 14:52:40 293] [Parent] Menu Measure

[2018-06-18 14:52:40 777] [Measure] check 5 Axis=Unchecked

[2018-06-18 14:52:48 435] [Parent] closing
[2018-06-18 14:52:48 435]Log End******************************************************

Note: XRD_Tool/log/20180619-log.txt
[2018-06-19 15:03:33 903]Log Start******************************************************

[2018-06-19 15:03:38 796] [UserLogin] login succeed!user=administrator,pwd=123456

[2018-06-19 15:03:39 077] [DeviceInit] Init faild, Uart Port not open

[2018-06-19 15:03:41 453] [DeviceInit] Init Skip

[2018-06-19 15:03:43 063] [Parent] Menu Measure

[2018-06-19 15:03:43 579] [Measure] check 5 Axis=Unchecked

[2018-06-19 15:03:46 789] [Parent] Shortcut Calc

[2018-06-19 15:04:12 872] [Parent] Menu Measure

[2018-06-19 15:04:12 966] [Measure] check 5 Axis=Unchecked

[2018-06-19 15:04:13 013] [Measure] Chart Fit Update,series=LDA_sample_name_56789_Psi-45_20180603-123104.txt file=D:\work\xrd\04.CodeLibrary\Trunk\XRD_Tool\XRD_Tool\bin\LDA_sample_name_56789_Psi-45_20180603-123104.txt

[2018-06-19 15:04:14 295] Python Cmd: [python D:\work\xrd\04.CodeLibrary\Trunk\XRD_Tool\XRD_Tool\bin\Debug\CurveFittingPearson_20180526.py 1 D:\work\xrd\04.CodeLibrary\Trunk\XRD_Tool\XRD_Tool\bin\LDA_sample_name_56789_Psi-45_20180603-123104.txt 0 > D:\work\xrd\04.CodeLibrary\Trunk\XRD_Tool\XRD_Tool\bin\Debug\CalcResult.py]

[2018-06-19 15:04:14 295] Python Result: [154.951709958299,730.420665990276,7.3391156567896,0.197825860321631,7.33911565678958]

[2018-06-19 15:04:21 515] [Parent] closing
[2018-06-19 15:04:21 515]Log End******************************************************
[2018-06-19 15:13:57 243]Log Start******************************************************

[2018-06-19 15:13:58 102] [UserLogin] login succeed!user=administrator,pwd=123456

[2018-06-19 15:13:58 258] [DeviceInit] Init faild, Uart Port not open

[2018-06-19 15:13:59 133] [DeviceInit] Init Skip

[2018-06-19 15:14:00 540] [Parent] Menu Measure

[2018-06-19 15:14:00 665] [Measure] check 5 Axis=Unchecked
[2018-06-19 15:14:52 954]Log Start******************************************************

[2018-06-19 15:14:54 251] [UserLogin] login succeed!user=administrator,pwd=123456

[2018-06-19 15:14:54 392] [DeviceInit] Init faild, Uart Port not open

[2018-06-19 15:14:55 314] [DeviceInit] Init Skip

[2018-06-19 15:14:56 080] [Parent] Menu Measure

[2018-06-19 15:14:56 204] [Measure] check 5 Axis=Unchecked
[2018-06-19 15:23:19 724]Log Start******************************************************

[2018-06-19 15:23:20 701] [UserLogin] login succeed!user=administrator,pwd=123456

[2018-06-19 15:23:20 842] [DeviceInit] Init faild, Uart Port not open

[2018-06-19 15:23:21 639] [DeviceInit] Init Skip

[2018-06-19 15:23:22 405] [Parent] Menu Measure

[2018-06-19 15:23:22 530] [Measure] check 5 Axis=Unchecked
[2018-06-19 15:31:49 205]Log Start******************************************************

[2018-06-19 15:31:51 122] [UserLogin] login succeed!user=administrator,pwd=123456

[2018-06-19 15:31:51 247] [DeviceInit] Init faild, Uart Port not open

[2018-06-19 15:31:52 248] [DeviceInit] Init Skip

[2018-06-19 15:31:53 357] [Parent] Menu Measure

[2018-06-19 15:3

File: 20180528-log_2.txt
[2018-05-28 02:31:21 966] UART Recv: @2[
 153.4400      285
 153.4600      292
]

0A203135332E343430302020202020203238350D0A203135332E343630302020202020203239320D
[2018-05-28 02:31:22 086] UART Recv: @2[
 153.4800      275
 153.5000      268
 153.5200      291
]

0A203135332E343830302020202020203237350D0A203135332E353030302020202020203236380D0A203135332E353230302020202020203239310D
[2018-05-28 02:31:22 246] UART Recv: @2[
 153.5400      305
 153.5600      324
]

0A203135332E353430302020202020203330350D0A203135332E353630302020202020203332340D
[2018-05-28 02:31:22 375] UART Recv: @2[
 153.5800      308
 153.6000      314
]

0A203135332E353830302020202020203330380D0A203135332E363030302020202020203331340D
[2018-05-28 02:31:22 503] UART Recv: @2[
 153.6200      279
 153.6400      304
]

0A203135332E363230302020202020203237390D0A203135332E363430302020202020203330340D
[2018-05-28 02:31:22 630] UART Recv: @2[
 153.6600      346
 153.6800      313
]

0A203135332E363630302020202020203334360D0A203135332E363830302020202020203331330D
[2018-05-28 02:31:22 758] CountDown Run[27,85]

[2018-05-28 02:31:22 886] UART Recv: @2[
 153.7400      322
 153.7600      292
]

0A203135332E373430302020202020203332320D0A203135332E373630302020202020203239320D
[2018-05-28 02:31:23 014] UART Recv: @2[
 153.7800      365
 153.8000      352
]

0A203135332E373830302020202020203336350D0A203135332E383030302020202020203335320D
[2018-05-28 02:31:23 142] UART Recv: @2[
 153.8200      320
 153.8400      379
]

0A203135332E383230302020202020203332300D0A203135332E383430302020202020203337390D
[2018-05-28 02:31:23 270] UART Recv: @2[
 153.8600      333
 153.8800      366
]

0A203135332E383630302020202020203333330D0A203135332E383830302020202020203336360D
[2018-05-28 02:31:23 398] UART Recv: @2[
 153.9000      394
 153.9200      362
]

0A203135332E393030302020202020203339340D0A203135332E393230302020202020203336320D
[2018-05-28 02:31:23 542] UART Recv: @2[
 153.9400      360
 153.9600      376
]

0A203135332E393430302020202020203336300D0A203135332E393630302020202020203337360D
[2018-05-28 02:31:23 670] UART Recv: @2[
 153.9800      414
 154.0000      392
]

0A203135332E393830302020202020203431340D0A203135342E303030302020202020203339320D
[2018-05-28 02:31:23 773] CountDown Run[28,85]

[2018-05-28 02:31:23 797] UART Recv: @2[
 154.0200      398
 154.0400      432
]

0A203135342E303230302020202020203339380D0A203135342E303430302020202020203433320D
[2018-05-28 02:31:23 926] UART Recv: @2[
 154.0600      419
 154.0800      449
]

0A203135342E303630302020202020203431390D0A203135342E303830302020202020203434390D
[2018-05-28 02:31:24 053] UART Recv: @2[
 154.1000      393
 154.1200      423
]

0A203135342E313030302020202020203339330D0A203135342E313230302020202020203432330D
[2018-05-28 02:31:24 181] UART Recv: @2[
 154.1400      432
 154.1600      424
]

0A203135342E313430302020202020203433320D0A203135342E313630302020202020203432340D
[2018-05-28 02:31:24 336] UART Recv: @2[
 154.1800      448
 154.2000      453
 154.2200      423
]

0A203135342E313830302020202020203434380D0A203135342E323030302020202020203435330D0A203135342E323230302020202020203432330D
[2018-05-28 02:31:24 501] UART Recv: @2[
 154.2400      459
 154.2600      450
]

0A203135342E323430302020202020203435390D0A203135342E323630302020202020203435300D
[2018-05-28 02:31:24 629] UART Recv: @2[
 154.2800      435
 154.3000      456
]

0A203135342E323830302020202020203433350D0A203135342E333030302020202020203435360D
[2018-05-28 02:31:24 773] UART Recv: @2[
 154.3200      486
 154.3400      439
]

0A203135342E333230302020202020203438360D0A203135342E333430302020202020203433390D
[2018-05-28 02:31:24 807] CountDown Run[29,85]

[2018-05-28 02:31:24 901] UART Recv: @2[
 154.3600      467
 154.3800      476
]

0A203135342E333630302020202020203436370D0A203135342E333830302020202020203437360D
[2018-05-28 02:31:25 029] UART Recv: @2[
 154.4000      490
 154.4200      467
]

0A203135342E343030302020202020203439300D0A203135342E343230302020202020203436370D
[2018-05-28 02:31:25 158] UART Recv: @2[
 154.4400      454
 154.4600      492
]

0A203135342E343430302020202020203435340D0A203135342E343630302020202020203439320D
[2018-05-28 02:31:25 285] UART Recv: @2[
 154.4800      472
 154.5000      517
]

0A203135342E343830302020202020203437320D0A203135342E353030302020202020203531370D
[2018-05-28 02:31:25 412] UART Recv: @2[
 154.5200      517
 154.5400      459
]

0A203135342E353230302020202020203531370D0A203135342E353430302020202020203435390D
[2018-05-28 02:31:25 540] UART Recv: @2[
 154.5600      512
 154.5800      465
]

0A203135342E353630302020202020203531320D0A203135342E353830302020202020203436350D
[2018-05-28 02:31:25 668] UART Recv: @2[
 154.6000      459
 154.6200      500
]

0A203135342E363030302020202020203435390D0A203135342E363230302020202020203530300D
[2018-05-28 02:31:25 796] UART Recv: @2[
 154.6400      492
 154.6600      492
]

0A203135342E363430302020202020203439320D0A203135342E363630302020202020203439320D
[2018-05-28 02:31:25 829] CountDown Run[30,85]

[2018-05-28 02:31:25 940] UART Recv: @2[
 154.6800      480
 154.7000      489
]

0A203135342E363830302020202020203438300D0A203135342E373030302020202020203438390D
[2018-05-28 02:31:26 069] UART Recv: @2[
 154.7200      464
 154.7400      487
]

0A203135342E373230302020202020203436340D0A203135342E373430302020202020203438370D
[2018-05-28 02:31:26 201] UART Recv: @2[
 154.7600      515
 154.7800      479
]

0A203135342E373630302020202020203531350D0A203135342E373830302020202020203437390D
[2018-05-28 02:31:26 325] UART Recv: @2[
 154.8000      495
 154.8200      511
]

0A203135342E383030302020202020203439350D0A203135342E383230302020202020203531310D
[2018-05-28 02:31:26 452] UART Recv: @2[
 154.8400      481
 154.8600      458
]

0A203135342E383430302020202020203438310D0A203135342E383630302020202020203435380D
[2018-05-28 02:31:26 580] UART Recv: @2[
 154.8800      493
 154.9000      447
]

0A203135342E383830302020202020203439330D0A203135342E393030302020202020203434370D
[2018-05-28 02:31:26 708] UART Recv: @2[
 154.9200      476
 154.9400      500
]

0A203135342E393230302020202020203437360D0A203135342E393430302020202020203530300D
[2018-05-28 02:31:26 815] CountDown Run[31,85]

[2018-05-28 02:31:26 836] UART Recv: @2[
 154.9600      472
 154.9800      507
]

0A203135342E393630302020202020203437320D0A203135342E393830302020202020203530370D
[2018-05-28 02:31:26 967] UART Recv: @2[
 155.0000      461
C=]

0A203135352E303030302020202020203436310D0A433D
[2018-05-28 02:31:27 863] Python Cmd: [python D:\PCTool\XRD_Tool_20180527_2100\XRD_Tool\XRD_Tool\bin\Debug\CurveFittingPearson_20180526.py 1 D:\PCTool\XRD_Tool\XRD_Tool\bin\Debug\SDD_sample_name_001_Psi-0_20180528-023054.txt 0 > D:\PCTool\XRD_Tool_20180527_2100\XRD_Tool\XRD_Tool\bin\Debug\CalcResult.py]

[2018-05-28 02:31:27 863] Python Result: [154.61,501.816,2.48892,0.549578,2.48892]

[2018-05-28 02:31:27 863] UART Send: [PAT15
]

50415431350D
[2018-05-28 02:31:27 864] CountDown Run[32,85]

[2018-05-28 02:31:27 988] UART Recv: @2[PAT15
C=

C=]

50415431350D0A433D0A0D0A433D
[2018-05-28 02:31:27 990] UART Send: [SAT145
]

5341543134350D
[2018-05-28 02:31:28 116] UART Recv: @2[SAT145
]

5341543134350D
[2018-05-28 02:31:28 843] CountDown Run[33,85]

[2018-05-28 02:31:29 858] CountDown Run[34,85]

[...]
[2018-05-28 02:33:06 049] CountDown Run[31,85]

[2018-05-28 02:33:06 168] UART Recv: @2[
 155.0000      486
C=]

0A203135352E303030302020202020203438360D0A433D
[2018-05-28 02:33:06 972] Python Cmd: [python D:\PCTool\XRD_Tool_20180527_2100\XRD_Tool\XRD_Tool\bin\Debug\CurveFittingPearson_20180526.py 1 D:\PCTool\XRD_Tool\XRD_Tool\bin\Debug\SDD_sample_name_001_Psi-0_20180528-023233.txt 0 > D:\PCTool\XRD_Tool_20180527_2100\XRD_Tool\XRD_Tool\bin\Debug\CalcResult.py]

[2018-05-28 02:33:06 972] Python Result: [154.63,499.465,2.56393,0.556931,2.56393]

[2018-05-28 02:33:06 973] UART Send: [STA15
]

53544131350D
[2018-05-28 02:33:07 022] CountDown Run[32,85]

[2018-05-28 02:33:07 103] UART Recv: @2[STA15
]

53544131350D
[2018-05-28 02:33:08 036] CountDown Run[33,85]

[2018-05-28 02:33:09 043] CountDown Run[34,85]

[2018-05-28 02:33:10 057] CountDown Run[35,85]

[2018-05-28 02:33:11 071] CountDown Run[36,85]

[2018-05-28 02:33:12 085] CountDown Run[37,85]

[2018-05-28 02:33:13 099] CountDown Run[38,85]

[2018-05-28 02:33:14 113] CountDown Run[39,85]

[2018-05-28 02:33:15 127] CountDown Run[40,85]

[2018-05-28 02:33:16 143] CountDown Run[41,85]

[2018-05-28 02:33:17 155] CountDown Run[42,85]

[2018-05-28 02:33:18 169] CountDown Run[43,85]

[2018-05-28 02:33:19 184] CountDown Run[44,85]

[2018-05-28 02:33:20 197] CountDown Run[45,85]

[2018-05-28 02:33:21 211] CountDown Run[46,85]

[2018-05-28 02:33:22 225] CountDown Run[47,85]

[2018-05-28 02:33:23 505] CountDown Run[48,85]

[2018-05-28 02:33:24 253] CountDown Run[49,85]

[2018-05-28 02:33:25 267] CountDown Run[50,85]

[2018-05-28 02:33:26 281] CountDown Run[51,85]

[2018-05-28 02:33:27 295] CountDown Run[52,85]

[2018-05-28 02:33:28 309] CountDown Run[53,85]

[2018-05-28 02:33:28 585] UART Send: [/
]

2F0D
[2018-05-28 02:33:28 715] UART Recv: @2[
C=]

0A433D
[2018-05-28 02:33:28 717] UART Send: [SHC
]

5348430D
[2018-05-28 02:33:29 323] CountDown Run[54,85]

[2018-05-28 02:33:30 337] CountDown Run[55,85]

[2018-05-28 02:33:31 351] CountDown Run[56,85]

[2018-05-28 02:33:32 365] CountDown Run[57,85]

[2018-05-28 02:33:33 379] CountDown Run[58,85]

[2018-05-28 02:33:34 393] CountDown Run[59,85]

[2018-05-28 02:33:35 409] CountDown Run[60,85]

[2018-05-28 02:33:36 421] CountDown Run[61,85]

[2018-05-28 02:33:37 435] CountDown Run[62,85]

[2018-05-28 02:33:38 449] CountDown Run[63,85]

[2018-05-28 02:33:39 463] CountDown Run[64,85]

[2018-05-28 02:33:40 478] CountDown Run[65,85]

[2018-05-28 02:33:41 491] CountDown Run[66,85]

[2018-05-28 02:33:42 504] CountDown Run[67,85]

[2018-05-28 02:33:43 519] CountDown Run[68,85]

[2018-05-28 02:33:44 536] CountDown Run[69,85]

[2018-05-28 02:33:45 547] CountDown Run[70,85]

[2018-05-28 02:33:46 561] CountDown Run[71,85]

[2018-05-28 02:33:47 575] CountDown Run[72,85]

[2018-05-28 02:33:48 589] CountDown Run[73,85]

[2018-05-28 02:33:49 683] CountDown Run[74,85]

[2018-05-28 02:33:50 617] CountDown Run[75,85]

[2018-05-28 02:33:51 631] CountDown Run[76,85]

[2018-05-28 02:33:52 646] CountDown Run[77,85]

[2018-05-28 02:33:53 659] CountDown Run[78,85]

[2018-05-28 02:33:54 673] CountDown Run[79,85]

[2018-05-28 02:33:55 688] CountDown Run[80,85]

[2018-05-28 02:33:56 701] CountDown Run[81,85]

[2018-05-28 02:33:57 717] CountDown Run[82,85]

[2018-05-28 02:33:58 729] CountDown Run[83,85]

[2018-05-28 02:33:59 743] CountDown Run[84,85]

[2018-05-28 02:33:59 746] CountDown stop[85,85]

[2018-05-28 02:34:00 872] UART Send: [/
]

2F0D
[2018-05-28 02:36:40 849] UART Recv: @2[
DX-2700BH TERMINAL=
++101
]

0A44582D323730304248205445524D494E414C3D0D2B2B3130310D