Folder: xrd/XRD_Tool/log (part 6)

File: LDA_sample_name_56789_Psi-24_20180623-131526.txt
138.0000     104
138.0800      92
138.1600     118
138.2400     119
138.3200      83
138.4000     100
138.4800      63
138.5600     120
138.6400     118
138.7200      80
138.8000      67
138.8800      80
138.9600     149
139.0400      90
139.1200     107
139.2000     122
139.2800     115
139.3600      97
139.4400      55
139.5200      60
139.6000     108
139.6800      33
139.7600     119
139.8400      63
139.9200     119
140.0000     125
140.0800      61
140.1600     114
140.2400      89
140.3200      53
140.4000     153
140.4800     105
140.5600      97
140.6400      89
140.7200      64
140.8000     141
140.8800      84
140.9600      87
141.0400     111
141.1200     121
141.2000      99
141.2800      78
141.3600     121
141.4400     118
141.5200      64
141.6000      80
141.6800     103
141.7600      76
141.8400     123
141.9200      90
142.0000      96
142.0800      80
142.1600     108
142.2400     108
142.3200     147
142.4000     114
142.4800      83
142.5600     115
142.6400      63
142.7200     106
142.8000      88
142.8800     109
142.9600     155
143.0400      83
143.1200      82
143.2000      75
143.2800     115
143.3600      99
143.4400     112
143.5200     150
143.6000      59
143.6800      87
143.7600     132
143.8400     104
143.9200      49
144.0000     107
144.0800     106
144.1600      65
144.2400     101
144.3200     101
144.4000     104
144.4800     123
144.5600     125
144.6400     108
144.7200      47
144.8000      67
144.8800      72
144.9600     104
145.0400      40
145.1200      81
145.2000      59
145.2800      62
145.3600      94
145.4400     121
145.5200     137
145.6000      56
145.6800      35
145.7600      87
145.8400      98
145.9200      75
146.0000      61
146.0800      77
146.1600      92
146.2400      54
146.3200      85
146.4000      65
146.4800     122
146.5600      69
146.6400      67
146.7200      82
146.8000      88
146.8800     102
146.9600      80
147.0400      46
147.1200     109
147.2000      78
147.2800     151
147.3600      73
147.4400     154
147.5200      98
147.6000     106
147.6800      83
147.7600     140
147.8400      57
147.9200      58
148.0000      94
148.0800      73
148.1600      52
148.2400      67
148.3200      56
148.4000      50
148.4800     126
148.5600      32
148.6400      81
148.7200      67
148.8000      97
148.8800      94
148.9600     105
149.0400      68
149.1200     109
149.2000      53
149.2800      80
149.3600     112
149.4400      63
149.5200      79
149.6000      41
149.6800     112
149.7600      44
149.8400      97
149.9200      90
150.0000      66
150.0800     103
150.1600      28
150.2400      94
150.3200     106
150.4000      89
150.4800     115
150.5600      75
150.6400      68
150.7200      87
150.8000      85
150.8800      67
150.9600      85
151.0400      67
151.1200      87
151.2000      35
151.2800     109
151.3600      69
151.4400      56
151.5200      91
151.6000      64
151.6800     112
151.7600      44
151.8400     110
151.9200      87
152.0000      53
152.0800      73
152.1600      45
152.2400      55
152.3200      49
152.4000      65
152.4800      46
152.5600     104
152.6400      47
152.7200      39
152.8000      99
152.8800      81
152.9600      62
153.0400      74
153.1200      74
153.2000      73
153.2800      71
153.3600      64
153.4400      78
153.5200      94
153.6000      68
153.6800      91
153.7600      56
153.8400      76
153.9200      53
154.0000      35
154.0800      86
154.1600      64
154.2400     110
154.3200      35
154.4000      67
154.4800      88
154.5600      97
154.6400      12
154.7200      75
154.8000     106
154.8800      64
154.9600     125
155.0400      67
155.1200     120
155.2000      86
155.2800      67
155.3600      53
155.4400      72
155.5200      71
155.6000      73
155.6800      76
155.7600      91
155.8400      83
155.9200      63
156.0000      81
156.0800     111
156.1600      43
156.2400      81
156.3200      44
156.4000      94
156.4800      76
156.5600      95
156.6400      90
156.7200     142
156.8000      50
156.8800      69
156.9600      76
157.0400      16
157.1200      28
157.2000      64
157.2800      57
157.3600      68
157.4400      59
157.5200      71
157.6000      55
157.6800      86
157.7600      38
157.8400      32
157.9200      79
158.0000      65
158.0800      62
158.1600     110
158.2400      48
158.3200      91
158.4000      90
158.4800      98
158.5600      55
158.6400      44
158.7200      82
158.8000      51
158.8800      33
158.9600      64
159.0400      91
159.1200      58
159.2000      37
159.2800     127
159.3600      26
159.4400      72
159.5200      37
159.6000      42
159.6800      71
159.7600      69
159.8400      51
159.9200      37
160.0000      59
160.0800      70
160.1600      94
160.2400      27
160.3200      59
160.4000      83
160.4800      54
160.5600      75
160.6400      48
160.7200      72
160.8000      21
160.8800      44
160.9600      63
161.0400      29
161.1200      57
161.2000      63
161.2800      54
161.3600      43
161.4400      29
161.5200      42
161.6000      39
161.6800      64
161.7600      57
161.8400      43
161.9200      56
161.9800      29

File: LDA_sample_name_56789_Psi-45_20180603-123104.txt
143.0000     271
143.0800     278
143.1600     292
143.2400     235
143.3200     247
143.4000     244
143.4800     262
143.5600     246
143.6400     255
143.7200     281
143.8000     262
143.8800     264
143.9600     249
144.0400     256
144.1200     257
144.2000     254
144.2800     266
144.3600     276
144.4400     240
144.5200     287
144.6000     248
144.6800     263
144.7600     268
144.8400     253
144.9200     225
145.0000     245
145.0800     251
145.1600     272
145.2400     265
145.3200     261
145.4000     246
145.4800     269
145.5600     286
145.6400     273
145.7200     260
145.8000     245
145.8800     273
145.9600     258
146.0400     252
146.1200     243
146.2000     277
146.2800     289
146.3600     243
146.4400     237
146.5200     271
146.6000     269
146.6800     230
146.7600     239
146.8400     266
146.9200     259
147.0000     273
147.0800     273
147.1600     273
147.2400     274
147.3200     246
147.4000     293
147.4800     258
147.5600     281
147.6400     258
147.7200     293
147.8000     293
147.8800     299
147.9600     301
148.0400     296
148.1200     297
148.2000     267
148.2800     267
148.3600     290
148.4400     280
148.5200     303
148.6000     265
148.6800     270
148.7600     273
148.8400     303
148.9200     280
149.0000     292
149.0800     285
149.1600     261
149.2400     277
149.3200     310
149.4000     297
149.4800     286
149.5600     293
149.6400     272
149.7200     276
149.8000     337
149.8800     320
149.9600     281
150.0400     288
150.1200     264
150.2000     292
150.2800     276
150.3600     292
150.4400     328
150.5200     333
150.6000     328
150.6800     297
150.7600     301
150.8400     354
150.9200     295
151.0000     316
151.0800     314
151.1600     283
151.2400     313
151.3200     341
151.4000     317
151.4800     343
151.5600     303
151.6400     347
151.7200     343
151.8000     335
151.8800     335
151.9600     340
152.0400     330
152.1200     379
152.2000     348
152.2800     386
152.3600     417
152.4400     423
152.5200     375
152.6000     431
152.6800     431
152.7600     445
152.8400     453
152.9200     466
153.0000     487
153.0800     452
153.1600     480
153.2400     497
153.3200     479
153.4000     529
153.4800     540
153.5600     540
153.6400     552
153.7200     612
153.8000     603
153.8800     619
153.9600     614
154.0400     579
154.1200     634
154.2000     624
154.2800     700
154.3600     653
154.4400     618
154.5200     665
154.6000     713
154.6800     768
154.7600     686
154.8400     724
154.9200     662
155.0000     734
155.0800     642
155.1600     654
155.2400     716
155.3200     726
155.4000     681
155.4800     684
155.5600     647
155.6400     696
155.7200     674
155.8000     609
155.8800     577
155.9600     597
156.0400     597
156.1200     588
156.2000     535
156.2800     583
156.3600     563
156.4400     515
156.5200     446
156.6000     465
156.6800     509
156.7600     509
156.8400     466
156.9200     470
157.0000     476
157.0800     405
157.1600     436
157.2400     418
157.3200     435
157.4000     403
157.4800     449
157.5600     369
157.6400     379
157.7200     375
157.8000     387
157.8800     376
157.9600     386
158.0400     388
158.1200     393
158.2000     350
158.2800     382
158.3600     367
158.4400     357
158.5200     385
158.6000     357
158.6800     369
158.7600     342
158.8400     356
158.9200     322
159.0000     293
159.0800     292
159.1600     341
159.2400     308
159.3200     306
159.4000     357
159.4800     318
159.5600     344
159.6400     329
159.7200     312
159.8000     298
159.8800     309
159.9600     343
160.0400     305
160.1200     285
160.2000     305
160.2800     277
160.3600     285
160.4400     312
160.5200     332
160.6000     304
160.6800     317
160.7600     287
160.8400     256
160.9200     315
161.0000     279
161.0800     291
161.1600     279
161.2400     270
161.3200     284
161.4000     303
161.4800     278
161.5600     299
161.6400     287
161.7200     273
161.8000     306
161.8800     283
161.9600     270
162.0400     263
162.1200     302
162.2000     258
162.2800     280
162.3600     286
162.4400     304
162.5200     262
162.6000     279
162.6800     290
162.7600     288
162.8400     307
162.9200     259
163.0000     288
163.0800     253
163.1600     290
163.2400     307
163.3200     273
163.4000     286
163.4800     300
163.5600     278
163.6400     282
163.7200     269
163.8000     290
163.8800     257
163.9600     268
164.0400     270
164.1200     266
164.2000     248
164.2800     267
164.3600     252
164.4400     284
164.5200     261
164.6000     264
164.6800     262
164.7600     262
164.8400     269
164.9200     258
165.0000     272
165.0800     282
165.1600     296
165.2400     256
165.3200     257
165.4000     264
165.4800     290
165.5600     287
165.6400     266
165.7200     280
165.8000     288
165.8800     270
165.9600     258
166.0400     244
166.1200     235
166.2000     280
166.2800     269
166.3600     246
166.4400     269
166.5200     259
166.6000     232
166.6800     299
166.7600     253
166.8400     272
166.9200     259
166.9600     269