Folder: xrd/XRD_Tool/XRD_Tool/bin/Debug (part 7)

File: LDA_sample_name_56789_Psi-0_20180623-123611.txt
138.0000     251
138.0800     167
138.1600     233
138.2400     300
138.3200     334
138.4000     215
138.4800     248
138.5600     227
138.6400     227
138.7200     231
138.8000     214
138.8800     236
138.9600     207
139.0400     208
139.1200     228
139.2000     276
139.2800     205
139.3600     267
139.4400     216
139.5200     135
139.6000     194
139.6800     237
139.7600     117
139.8400     203
139.9200     351
140.0000     193
140.0800     231
140.1600     209
140.2400     300
140.3200     257
140.4000     201
140.4800     195
140.5600     246
140.6400     216
140.7200     201
140.8000     247
140.8800     277
140.9600     292
141.0400     271
141.1200     290
141.2000     240
141.2800     305
141.3600     259
141.4400     215
141.5200     223
141.6000     266
141.6800     124
141.7600     265
141.8400     272
141.9200     181
142.0000     276
142.0800     213
142.1600     242
142.2400     294
142.3200     276
142.4000     259
142.4800     357
142.5600     325
142.6400     258
142.7200     256
142.8000     246
142.8800     258
142.9600     417
143.0400     308
143.1200     236
143.2000     300
143.2800     323
143.3600     313
143.4400     278
143.5200     337
143.6000     324
143.6800     301
143.7600     250
143.8400     261
143.9200     268
144.0000     376
144.0800     325
144.1600     287
144.2400     329
144.3200     285
144.4000     270
144.4800     381
144.5600     370
144.6400     320
144.7200     218
144.8000     281
144.8800     390
144.9600     271
145.0400     280
145.1200     320
145.2000     283
145.2800     302
145.3600     234
145.4400     265
145.5200     279
145.6000     345
145.6800     333
145.7600     416
145.8400     220
145.9200     271
146.0000     232
146.0800     294
146.1600     303
146.2400     315
146.3200     326
146.4000     318
146.4800     359
146.5600     229
146.6400     280
146.7200     339
146.8000     283
146.8800     283
146.9600     323
147.0400     282
147.1200     353
147.2000     350
147.2800     287
147.3600     316
147.4400     265
147.5200     459
147.6000     444
147.6800     395
147.7600     389
147.8400     335
147.9200     340
148.0000     419
148.0800     443
148.1600     355
148.2400     435
148.3200     353
148.4000     429
148.4800     377
148.5600     405
148.6400     518
148.7200     373
148.8000     306
148.8800     350
148.9600     281
149.0400     374
149.1200     375
149.2000     341
149.2800     445
149.3600     437
149.4400     471
149.5200     381
149.6000     483
149.6800     429
149.7600     383
149.8400     409
149.9200     496
150.0000     491
150.0800     442
150.1600     436
150.2400     457
150.3200     467
150.4000     539
150.4800     574
150.5600     579
150.6400     585
150.7200     554
150.8000     539
150.8800     600
150.9600     662
151.0400     486
151.1200     584
151.2000     561
151.2800     743
151.3600     691
151.4400     748
151.5200     722
151.6000     733
151.6800     787
151.7600     839
151.8400     777
151.9200     831
152.0000     908
152.0800     896
152.1600     977
152.2400     973
152.3200    1114
152.4000    1255
152.4800    1209
152.5600    1381
152.6400    1508
152.7200    1425
152.8000    1654
152.8800    1670
152.9600    1717
153.0400    1779
153.1200    1937
153.2000    2091
153.2800    2066
153.3600    2185
153.4400    2148
153.5200    2320
153.6000    2567
153.6800    2540
153.7600    2647
153.8400    2717
153.9200    2661
154.0000    2585
154.0800    2558
154.1600    2709
154.2400    2664
154.3200    2518
154.4000    2511
154.4800    2545
154.5600    2551
154.6400    2403
154.7200    2479
154.8000    2224
154.8800    2225
154.9600    2387
155.0400    2185
155.1200    1832
155.2000    1905
155.2800    1773
155.3600    1825
155.4400    1642
155.5200    1563
155.6000    1452
155.6800    1419
155.7600    1336
155.8400    1397
155.9200    1293
156.0000    1224
156.0800    1173
156.1600    1152
156.2400    1152
156.3200    1019
156.4000     940
156.4800     963
156.5600     830
156.6400     872
156.7200     787
156.8000     867
156.8800     862
156.9600     642
157.0400     614
157.1200     694
157.2000     668
157.2800     712
157.3600     687
157.4400     609
157.5200     625
157.6000     643
157.6800     712
157.7600     703
157.8400     532
157.9200     466
158.0000     663
158.0800     581
158.1600     581
158.2400     418
158.3200     461
158.4000     546
158.4800     343
158.5600     490
158.6400     404
158.7200     436
158.8000     428
158.8800     501
158.9600     507
159.0400     426
159.1200     388
159.2000     399
159.2800     428
159.3600     416
159.4400     359
159.5200     271
159.6000     498
159.6800     324
159.7600     395
159.8400     372
159.9200     386
160.0000     371
160.0800     469
160.1600     395
160.2400     379
160.3200     374
160.4000     389
160.4800     336
160.5600     365
160.6400     315
160.7200     428
160.8000     378
160.8800     269
160.9600     284
161.0400     374
161.1200     301
161.2000     329
161.2800     384
161.3600     361
161.4400     256
161.5200     270
161.6000     328
161.6800     263
161.7600     241
161.8400     251
161.9200     270
161.9800     325

File: LDA_sample_name_56789_Psi-0_20180623-123813.txt
138.0000     282
138.0800     231
138.1600     155
138.2400     323
138.3200     252
138.4000     213
138.4800     245
138.5600     237
138.6400     150
138.7200     229
138.8000     200
138.8800     160
138.9600     316
139.0400     141
139.1200     181
139.2000     249
139.2800     141
139.3600     224
139.4400     241
139.5200     131
139.6000     239
139.6800     254
139.7600     233
139.8400     192
139.9200     242
140.0000     194
140.0800     221
140.1600     205
140.2400     352
140.3200     235
140.4000     119
140.4800     263
140.5600     218
140.6400     224
140.7200     342
140.8000     223
140.8800     216
140.9600     310
141.0400     201
141.1200     117
141.2000     236
141.2800     259
141.3600     320
141.4400     236
141.5200     336
141.6000     227
141.6800     379
141.7600     233
141.8400     193
141.9200     332
142.0000     275
142.0800     246
142.1600     204
142.2400     162
142.3200     223
142.4000     289
142.4800     293
142.5600     267
142.6400     195
142.7200     245
142.8000     341
142.8800     253
142.9600     279
143.0400     293
143.1200     279
143.2000     276
143.2800     336
143.3600     278
143.4400     283
143.5200     310
143.6000     232
143.6800     311
143.7600     389
143.8400     335
143.9200     340
144.0000     295
144.0800     316
144.1600     298
144.2400     382
144.3200     361
144.4000     331
144.4800     317
144.5600     238
144.6400     287
144.7200     307
144.8000     375
144.8800     265
144.9600     319
145.0400     271
145.1200     297
145.2000     277
145.2800     302
145.3600     270
145.4400     233
145.5200     256
145.6000     328
145.6800     274
145.7600     294
145.8400     282
145.9200     325
146.0000     361
146.0800     323
146.1600     217
146.2400     302
146.3200     388
146.4000     266
146.4800     386
146.5600     294
146.6400     351
146.7200     318
146.8000     313
146.8800     331
146.9600     363
147.0400     298
147.1200     271
147.2000     268
147.2800     339
147.3600     363
147.4400     358
147.5200     375
147.6000     384
147.6800     406
147.7600     424
147.8400     357
147.9200     347
148.0000     402
148.0800     347
148.1600     404
148.2400     419
148.3200     415
148.4000     324
148.4800     433
148.5600     420
148.6400     398
148.7200     384
148.8000     363
148.8800     410
148.9600     320
149.0400     353
149.1200     429
149.2000     408
149.2800     349
149.3600     356
149.4400     400
149.5200     354
149.6000     395
149.6800     450
149.7600     403
149.8400     432
149.9200     473
150.0000     516
150.0800     442
150.1600     459
150.2400     554
150.3200     444
150.4000     521
150.4800     649
150.5600     505
150.6400     474
150.7200     508
150.8000     518
150.8800     447
150.9600     514
151.0400     617
151.1200     452
151.2000     610
151.2800     675
151.3600     655
151.4400     652
151.5200     641
151.6000     765
151.6800     716
151.7600     666
151.8400     871
151.9200     936
152.0000     982
152.0800    1022
152.1600    1004
152.2400     980
152.3200    1159
152.4000    1160
152.4800    1258
152.5600    1388
152.6400    1322
152.7200    1589
152.8000    1653
152.8800    1763
152.9600    1882
153.0400    1794
153.1200    1887
153.2000    2013
153.2800    2125
153.3600    2369
153.4400    2260
153.5200    2347
153.6000    2475
153.6800    2442
153.7600    2522
153.8400    2731
153.9200    2687
154.0000    2531
154.0800    2574
154.1600    2778
154.2400    2570
154.3200    2506
154.4000    2553
154.4800    2279
154.5600    2436
154.6400    2340
154.7200    2318
154.8000    2159
154.8800    2283
154.9600    2351
155.0400    2208
155.1200    2023
155.2000    1863
155.2800    1724
155.3600    1644
155.4400    1693
155.5200    1672
155.6000    1491
155.6800    1344
155.7600    1424
155.8400    1379
155.9200    1207
156.0000    1103
156.0800    1299
156.1600    1177
156.2400     981
156.3200     991
156.4000     889
156.4800    1007
156.5600     931
156.6400     966
156.7200     721
156.8000     809
156.8800     732
156.9600     675
157.0400     735
157.1200     602
157.2000     633
157.2800     678
157.3600     525
157.4400     570
157.5200     497
157.6000     681
157.6800     415
157.7600     597
157.8400     556
157.9200     594
158.0000     568
158.0800     564
158.1600     439
158.2400     531
158.3200     430
158.4000     425
158.4800     436
158.5600     547
158.6400     388
158.7200     584
158.8000     527
158.8800     369
158.9600     468
159.0400     368
159.1200     321
159.2000     515
159.2800     442
159.3600     399
159.4400     388
159.5200     410
159.6000     362
159.6800     381
159.7600     294
159.8400     350
159.9200     409
160.0000     386
160.0800     356
160.1600     339
160.2400     357
160.3200     414
160.4000     370
160.4800     300
160.5600     332
160.6400     288
160.7200     305
160.8000     255
160.8800     347
160.9600     303
161.0400     390
161.1200     302
161.2000     372
161.2800     278
161.3600     377
161.4400     299
161.5200     207
161.6000     304
161.6800     273
161.7600     212
161.8400     332
161.9200     299
161.9800     271

File: LDA_sample_name_56789_Psi-0_20180623-123948.txt
138.0000     157
138.0800     221
138.1600     209
138.2400     167
138.3200     211
138.4000     195
138.4800     215
138.5600     167
138.6400     301
138.7200     213
138.8000     202
138.8800     222
138.9600     189
139.0400     182
139.1200     112
139.2000     193
139.2800     155
139.3600     184
139.4400     285
139.5200     248
139.6000     202
139.6800     184
139.7600     219
139.8400     217
139.9200     263
140.0000     202
140.0800     129
140.1600     200
140.2400     237
140.3200     184
140.4000     135
140.4800     175
140.5600     232
140.6400     221
140.7200     232
140.8000     268
140.8800     254
140.9600     168
141.0400     220
141.1200     153
141.2000     168
141.2800     167
141.3600     155
141.4400     255
141.5200     165
141.6000     233
141.6800     167
141.7600     275
141.8400     176
141.9200     203
142.0000     254
142.0800     239
142.1600     306
142.2400     238
142.3200     169
142.4000     254
142.4800     341
142.5600     324
142.6400     225
142.7200     166
142.8000     216
142.8800     224
142.9600     273
143.0400     295
143.1200     294
143.2000     187
143.2800     289
143.3600     224
143.4400     213
143.5200     220
143.6000     270
143.6800     243
143.7600     342
143.8400     185
143.9200     232
144.0000     235
144.0800     265
144.1600     231
144.2400     261
144.3200     278
144.4000     242
144.4800     262
144.5600     292
144.6400     249
144.7200     192
144.8000     363
144.8800     320
144.9600     311
145.0400     248
145.1200     261
145.2000     285
145.2800     287
145.3600     216
145.4400     219
145.5200     344
145.6000     181
145.6800     214
145.7600     273
145.8400     269
145.9200     306
146.0000     209
146.0800     180
146.1600     169
146.2400     265
146.3200     238
146.4000     192
146.4800     330
146.5600     294
146.6400     304
146.7200     288
146.8000     393
146.8800     262
146.9600     362
147.0400     239
147.1200     284
147.2000     363
147.2800     271
147.3600     296
147.4400     331
147.5200     320
147.6000     357
147.6800     251
147.7600     307
147.8400     339
147.9200     345
148.0000     400
148.0800     397
148.1600     335
148.2400     295
148.3200     278
148.4000     367
148.4800     430
148.5600     379
148.6400     280
148.7200     385
148.8000     335
148.8800     387
148.9600     479
149.0400     402
149.1200     459
149.2000     440
149.2800     474
149.3600     389
149.4400     431
149.5200     440
149.6000     504
149.6800     472
149.7600     424
149.8400     322
149.9200     545
150.0000     518
150.0800     499
150.1600     459
150.2400     470
150.3200     517
150.4000     421
150.4800     506
150.5600     459
150.6400     422
150.7200     532
150.8000     501
150.8800     578
150.9600     577
151.0400     545
151.1200     627
151.2000     676
151.2800     586
151.3600     749
151.4400     681
151.5200     646
151.6000     748
151.6800     879
151.7600     725
151.8400     906
151.9200     835
152.0000     962
152.0800    1044
152.1600     955
152.2400    1001
152.3200     994
152.4000    1140
152.4800    1309
152.5600    1235
152.6400    1410
152.7200    1424
152.8000    1632
152.8800    1581
152.9600    1765
153.0400    1815
153.1200    1899
153.2000    2008
153.2800    1942
153.3600    2249
153.4400    2202
153.5200    2383
153.6000    2589
153.6800    2444
153.7600    2510
153.8400    2683
153.9200    2703
154.0000    2632
154.0800    2592
154.1600    2593
154.2400    2733
154.3200    2633
154.4000    2530
154.4800    2510
154.5600    2625
154.6400    2311
154.7200    2230
154.8000    2239
154.8800    2079
154.9600    2315
155.0400    2189
155.1200    2027
155.2000    1893
155.2800    1745
155.3600    1767
155.4400    1589
155.5200    1590
155.6000    1590
155.6800    1503
155.7600    1388
155.8400    1413
155.9200    1169
156.0000    1167
156.0800    1152
156.1600    1019
156.2400    1058
156.3200    1073
156.4000     968
156.4800     926
156.5600     802
156.6400     982
156.7200     807
156.8000     783
156.8800     729
156.9600     642
157.0400     810
157.1200     616
157.2000     649
157.2800     601
157.3600     516
157.4400     524
157.5200     548
157.6000     509
157.6800     593
157.7600     550
157.8400     588
157.9200     514
158.0000     600
158.0800     508
158.1600     493
158.2400     464
158.3200     405
158.4000     395
158.4800     411
158.5600     505
158.6400     487
158.7200     434
158.8000     374
158.8800     372
158.9600     308
159.0400     315
159.1200     330
159.2000     464
159.2800     436
159.3600     355
159.4400     385
159.5200     307
159.6000     399
159.6800     309
159.7600     405
159.8400     279
159.9200     257
160.0000     327
160.0800     403
160.1600     299
160.2400     361
160.3200     308
160.4000     385
160.4800     284
160.5600     324
160.6400     234
160.7200     361
160.8000     312
160.8800     377
160.9600     238
161.0400     284
161.1200     321
161.2000     223
161.2800     296
161.3600     206
161.4400     332
161.5200     276
161.6000     184
161.6800     306
161.7600     317
161.8400     246
161.9200     203
161.9800     253

File: LDA_sample_name_56789_Psi-0_20180623-124854.txt
138.0000     152
138.0800     251
138.1600     219
138.2400     224
138.3200     362
138.4000     173
138.4800     289
138.5600     261
138.6400     336
138.7200     273
138.8000     198
138.8800     258
138.9600     227
139.0400     277
139.1200     268
139.2000     191
139.2800     279
139.3600     303
139.4400     236
139.5200     254
139.6000     317
139.6800     308
139.7600     307
139.8400     211
139.9200     312
140.0000     255
140.0800     264
140.1600     259
140.2400     319
140.3200     304
140.4000     254
140.4800     228
140.5600     141
140.6400     319
140.7200     320
140.8000     311
140.8800     190
140.9600     310
141.0400     268
141.1200     257
141.2000     223
141.2800     313
141.3600     286
141.4400     306
141.5200     157
141.6000     348
141.6800     301
141.7600     290
141.8400     284
141.9200     307
142.0000     271
142.0800     319
142.1600     349
142.2400     242
142.3200     356
142.4000     324
142.4800     343
142.5600     311
142.6400     206
142.7200     302
142.8000     314
142.8800     434
142.9600     349
143.0400     378
143.1200     364
143.2000     292
143.2800     345
143.3600     329
143.4400     339
143.5200     296
143.6000     379
143.6800     309
143.7600     307
143.8400     416
143.9200     332
144.0000     287
144.0800     272
144.1600     320
144.2400     462
144.3200     366
144.4000     373
144.4800     264
144.5600     299
144.6400     263
144.7200     321
144.8000     318
144.8800     347
144.9600     289
145.0400     322
145.1200     414
145.2000     359
145.2800     289
145.3600     331
145.4400     417
145.5200     343
145.6000     271
145.6800     349
145.7600     382
145.8400     491
145.9200     299
146.0000     323
146.0800     357
146.1600     369
146.2400     332
146.3200     202
146.4000     391
146.4800     300
146.5600     291
146.6400     286
146.7200     406
146.8000     422
146.8800     332
146.9600     300
147.0400     419
147.1200     388
147.2000     259
147.2800     350
147.3600     445
147.4400     491
147.5200     411
147.6000     356
147.6800     343
147.7600     448
147.8400     409
147.9200     379
148.0000     474
148.0800     379
148.1600     383
148.2400     376
148.3200     377
148.4000     454
148.4800     361
148.5600     381
148.6400     501
148.7200     426
148.8000     347
148.8800     488
148.9600     493
149.0400     433
149.1200     425
149.2000     470
149.2800     442
149.3600     393
149.4400     443
149.5200     468
149.6000     392
149.6800     388
149.7600     440
149.8400     413
149.9200     475
150.0000     447
150.0800     491
150.1600     504
150.2400     506
150.3200     566
150.4000     520
150.4800     543
150.5600     585
150.6400     488
150.7200     531
150.8000     639
150.8800     599
150.9600     556
151.0400     641
151.1200     623
151.2000     644
151.2800     713
151.3600     710
151.4400     835
151.5200     732
151.6000     877
151.6800     774
151.7600     796
151.8400     921
151.9200     884
152.0000     939
152.0800    1063
152.1600     996
152.2400    1166
152.3200    1058
152.4000    1108
152.4800    1320
152.5600    1386
152.6400    1607
152.7200    1647
152.8000    1594
152.8800    1809
152.9600    1914
153.0400    1906
153.1200    2070
153.2000    2067
153.2800    2057
153.3600    2318
153.4400    2269
153.5200    2405
153.6000    2522
153.6800    2493
153.7600    2819
153.8400    2661
153.9200    2630
154.0000    2613
154.0800    2542
154.1600    2775
154.2400    2651
154.3200    2683
154.4000    2670
154.4800    2518
154.5600    2602
154.6400    2334
154.7200    2372
154.8000    2197
154.8800    2438
154.9600    2280
155.0400    2309
155.1200    1900
155.2000    1917
155.2800    1973
155.3600    1775
155.4400    1707
155.5200    1564
155.6000    1534
155.6800    1431
155.7600    1373
155.8400    1426
155.9200    1252
156.0000    1298
156.0800    1229
156.1600    1183
156.2400    1200
156.3200    1099
156.4000    1002
156.4800    1006
156.5600     996
156.6400     876
156.7200     880
156.8000    1008
156.8800     771
156.9600     703
157.0400     798
157.1200     810
157.2000     675
157.2800     645
157.3600     695
157.4400     629
157.5200     651
157.6000     638
157.6800     718
157.7600     590
157.8400     633
157.9200     578
158.0000     612
158.0800     574
158.1600     631
158.2400     536
158.3200     507
158.4000     513
158.4800     484
158.5600     541
158.6400     515
158.7200     490
158.8000     528
158.8800     391
158.9600     511
159.0400     423
159.1200     502
159.2000     465
159.2800     527
159.3600     482
159.4400     508
159.5200     409
159.6000     375
159.6800     465
159.7600     431
159.8400     406
159.9200     374
160.0000     409
160.0800     382
160.1600     344
160.2400     404
160.3200     334
160.4000     298
160.4800     288
160.5600     371
160.6400     321
160.7200     399
160.8000     343
160.8800     370
160.9600     329
161.0400     193
161.1200     363
161.2000     373
161.2800     314
161.3600     253
161.4400     332
161.5200     307
161.6000     282
161.6800     342
161.7600     334
161.8400     266
161.9200     283
161.9800     223

File: LDA_sample_name_56789_Psi-0_20180623-125423.txt
138.0000     295
138.0800     215
138.1600     228
138.2400     238
138.3200     204
138.4000     274
138.4800     250
138.5600     164
138.6400     253
138.7200     240
138.8000     268
138.8800     306
138.9600     205
139.0400     306
139.1200     311
139.2000     283
139.2800     218
139.3600     198
139.4400     326
139.5200     215
139.6000     335
139.6800     263
139.7600     296
139.8400     253
139.9200     262
140.0000     260
140.0800     213
140.1600     375
140.2400     233
140.3200     244
140.4000     183
140.4800     243
140.5600     301
140.6400     166
140.7200     251
140.8000     245
140.8800     199
140.9600     176
141.0400     191
141.1200     271
141.2000     302
141.2800     418
141.3600     314
141.4400     313
141.5200     235
141.6000     244
141.6800     295
141.7600     236
141.8400     262
141.9200     156
142.0000     339
142.0800     350
142.1600     420
142.2400     269
142.3200     339
142.4000     285
142.4800     295
142.5600     274
142.6400     292
142.7200     216
142.8000     368
142.8800     270
142.9600     355
143.0400     267
143.1200     306
143.2000     271
143.2800     346
143.3600     287
143.4400     368
143.5200     250
143.6000     365
143.6800     376
143.7600     346
143.8400     425
143.9200     284
144.0000     378
144.0800     347
144.1600     362
144.2400     380
144.3200     270
144.4000     340
144.4800     266
144.5600     330
144.6400     317
144.7200     374
144.8000     294
144.8800     345
144.9600     313
145.0400     339
145.1200     249
145.2000     338
145.2800     360
145.3600     215
145.4400     294
145.5200     373
145.6000     284
145.6800     265
145.7600     305
145.8400     384
145.9200     326
146.0000     292
146.0800     353
146.1600     373
146.2400     369
146.3200     312
146.4000     285
146.4800     444
146.5600     326
146.6400     342
146.7200     353
146.8000     456
146.8800     337
146.9600     373
147.0400     340
147.1200     337
147.2000     410
147.2800     345
147.3600     437
147.4400     337
147.5200     327
147.6000     480
147.6800     419
147.7600     475
147.8400     386
147.9200     493
148.0000     442
148.0800     321
148.1600     361
148.2400     364
148.3200     368
148.4000     344
148.4800     405
148.5600     414
148.6400     332
148.7200     373
148.8000     365
148.8800     445
148.9600     420
149.0400     410
149.1200     492
149.2000     533
149.2800     481
149.3600     435
149.4400     424
149.5200     395
149.6000     561
149.6800     443
149.7600     398
149.8400     457
149.9200     387
150.0000     450
150.0800     476
150.1600     472
150.2400     464
150.3200     473
150.4000     405
150.4800     451
150.5600     470
150.6400     564
150.7200     604
150.8000     618
150.8800     531
150.9600     657
151.0400     614
151.1200     605
151.2000     637
151.2800     752
151.3600     790
151.4400     747
151.5200     797
151.6000     805
151.6800     836
151.7600     806
151.8400     893
151.9200     969
152.0000     945
152.0800     944
152.1600     985
152.2400     954
152.3200    1118
152.4000    1226
152.4800    1090
152.5600    1395
152.6400    1442
152.7200    1504
152.8000    1639
152.8800    1899
152.9600    1986
153.0400    1853
153.1200    1953
153.2000    2128
153.2800    2073
153.3600    2126
153.4400    2328
153.5200    2494
153.6000    2648
153.6800    2720
153.7600    2654
153.8400    2792
153.9200    2783
154.0000    2622
154.0800    2508
154.1600    2698
154.2400    2759
154.3200    2622
154.4000    2632
154.4800    2488
154.5600    2688
154.6400    2421
154.7200    2230
154.8000    2365
154.8800    2328
154.9600    2410
155.0400    2181
155.1200    1951
155.2000    1865
155.2800    1790
155.3600    1950
155.4400    1746
155.5200    1609
155.6000    1330
155.6800    1580
155.7600    1428
155.8400    1447
155.9200    1232
156.0000    1293
156.0800    1083
156.1600    1226
156.2400    1144
156.3200    1059
156.4000     892
156.4800     989
156.5600     894
156.6400     824
156.7200     859
156.8000     812
156.8800     703
156.9600     728
157.0400     815
157.1200     762
157.2000     678
157.2800     690
157.3600     622
157.4400     623
157.5200     564
157.6000     569
157.6800     693
157.7600     674
157.8400     596
157.9200     513
158.0000     698
158.0800     523
158.1600     602
158.2400     635
158.3200     521
158.4000     479
158.4800     509
158.5600     530
158.6400     448
158.7200     545
158.8000     491
158.8800     433
158.9600     390
159.0400     481
159.1200     490
159.2000     464
159.2800     411
159.3600     450
159.4400     443
159.5200     359
159.6000     439
159.6800     317
159.7600     467
159.8400     309
159.9200     292
160.0000     349
160.0800     434
160.1600     341
160.2400     443
160.3200     343
160.4000     380
160.4800     468
160.5600     351
160.6400     316
160.7200     307
160.8000     321
160.8800     274
160.9600     324
161.0400     314
161.1200     312
161.2000     310
161.2800     266
161.3600     362
161.4400     390
161.5200     236
161.6000     346
161.6800     282
161.7600     330
161.8400     344
161.9200     305
161.9800     235