Folder: xrd/XRD_Tool/XRD_Tool/bin/Debug (part 5)

File: LDA_sample_name_56789_Psi-0_20180622-210504.txt
127.2000      22
127.2800      22
127.3600      -1
127.4400      11
127.5200      12
127.6000      31
127.6800      21
127.7600      18
127.8400      17
127.9200      20
128.0000      18
128.0800      15
128.1600      27
128.2400      50
128.3200      21
128.4000      12
128.4800      25
128.5600      25
128.6400      22
128.7200      37
128.8000      10
128.8800      21
128.9600      24
129.0400       4
129.1200       2
129.2000      34
129.2800       2
129.3600      19
129.4400      32
129.5200      18
129.6000      41
129.6800      29
129.7600       1
129.8400       9
129.9200      29
130.0000      17
130.0800      27
130.1600      36
130.2400      31
130.3200      20
130.4000      32
130.4800      34
130.5600      50
130.6400      12
130.7200      37
130.8000      11
130.8800      11
130.9600      18
131.0400      50
131.1200      17
131.2000      16
131.2800      28
131.3600      25
131.4400       4
131.5200      29
131.6000      24
131.6800      14
131.7600      26
131.8400      10
131.9200       4
132.0000      37
132.0800      29
132.1600      14
132.2400      31
132.3200      17
132.4000      30
132.4800      28
132.5600      29
132.6400       6
132.7200      34
132.8000      33
132.8800      47
132.9600      12
133.0400      10
133.1200      29
133.2000      36
133.2800      13
133.3600      24
133.4400      15
133.5200      26
133.6000      41
133.6800      30
133.7600       6
133.8400      21
133.9200      25
134.0000      19
134.0800      22
134.1600       0
134.2400      38
134.3200      15
134.4000      31
134.4800      21
134.5600      41
134.6400      22
134.7200      25
134.8000      45
134.8800      59
134.9600      13
135.0400      39
135.1200      15
135.2000      12
135.2800      27
135.3600      13
135.4400      21
135.5200      14
135.6000      26
135.6800      43
135.7600      28
135.8400       7
135.9200      38
136.0000      23
136.0800      34
136.1600      14
136.2400      12
136.3200      36
136.4000      48
136.4800      23
136.5600      20
136.6400      32
136.7200      47
136.8000      35
136.8800      59
136.9600      28
137.0400      19
137.1200      23
137.2000      25
137.2800      39
137.3600      16
137.4400      17
137.5200      45
137.6000      20
137.6800      38
137.7600      30
137.8400      34
137.9200      14
138.0000      39
138.0800      27
138.1600      40
138.2400      31
138.3200      29
138.4000      23
138.4800      20
138.5600      31
138.6400      37
138.7200       7
138.8000      45
138.8800      32
138.9600      32
139.0400      30
139.1200      39
139.2000      20
139.2800      29
139.3600      21
139.4400      27
139.5200      22
139.6000      19
139.6800      41
139.7600      28
139.8400      33
139.9200      44
140.0000      13
140.0800      25
140.1600      14
140.2400      25
140.3200       9
140.4000      14
140.4800      37
140.5600      12
140.6400      32
140.7200      19
140.8000      27
140.8800      37
140.9600      29
141.0400      20
141.1200      19
141.2000      43
141.2800      22
141.3600      16
141.4400      26
141.5200      24
141.6000      40
141.6800      21
141.7600      35
141.8400      32
141.9200      20
142.0000      25
142.0800      22
142.1600      16
142.2400      21
142.3200      57
142.4000      14
142.4800      50
142.5600      29
142.6400      28
142.7200      55
142.8000      17
142.8800      34
142.9600      13
143.0400      53
143.1200      43
143.2000      26
143.2800      29
143.3600      14
143.4400      24
143.5200      23
143.6000      40
143.6800      20
143.7600      15
143.8400       5
143.9200      31
144.0000       3
144.0800      28
144.1600      21
144.2400      12
144.3200      14
144.4000      25
144.4800      21
144.5600      28
144.6400       6
144.7200      31
144.8000      12
144.8800      11
144.9600      17
145.0400      25
145.1200      29
145.2000      47
145.2800       2
145.3600       5
145.4400      17
145.5200      26
145.6000      16
145.6800      25
145.7600      14
145.8400      37
145.9200      39
146.0000      15
146.0800      22
146.1600       7
146.2400      39
146.3200      44
146.4000      32
146.4800      34
146.5600      17
146.6400      32
146.7200      14
146.8000      24
146.8800      35
146.9600      16
147.0400      29
147.1200      24
147.2000      26
147.2800      36
147.3600      37
147.4400      20
147.5200      33
147.6000      16
147.6800      17
147.7600      21
147.8400       4
147.9200      15
148.0000      47
148.0800      22
148.1600      14
148.2400      16
148.3200      25
148.4000      29
148.4800      63
148.5600      27
148.6400      25
148.7200      42
148.8000      23
148.8800      37
148.9600      38
149.0400      18
149.1200      14
149.2000      30
149.2800      23
149.3600      42
149.4400      37
149.5200      43
149.6000      23
149.6800      33
149.7600      31
149.8400      14
149.9200      55
150.0000      17
150.0800      34
150.1600      37
150.2400      28
150.3200      38
150.4000      26
150.4800      33
150.5600      33
150.6400      35
150.7200      35
150.8000      41
150.8800      37
150.9600      37
151.0400      53
151.1200      46
151.1800      24

File: LDA_sample_name_56789_Psi-0_20180622-213735.txt
137.2000     233
137.2800     232
137.3600     171
137.4400     311
137.5200     336
137.6000     281
137.6800     196
137.7600     150
137.8400     266
137.9200     314
138.0000     191
138.0800     199
138.1600     271
138.2400     233
138.3200     278
138.4000     241
138.4800     271
138.5600     146
138.6400     263
138.7200     298
138.8000     273
138.8800     201
138.9600     328
139.0400     262
139.1200     227
139.2000     321
139.2800     221
139.3600     271
139.4400     322
139.5200     270
139.6000     231
139.6800     344
139.7600     267
139.8400     390
139.9200     279
140.0000     266
140.0800     296
140.1600     269
140.2400     323
140.3200     243
140.4000     309
140.4800     300
140.5600     226
140.6400     311
140.7200     258
140.8000     200
140.8800     281
140.9600     181
141.0400     214
141.1200     296
141.2000     361
141.2800     234
141.3600     218
141.4400     338
141.5200     252
141.6000     399
141.6800     237
141.7600     334
141.8400     253
141.9200     203
142.0000     383
142.0800     291
142.1600     355
142.2400     326
142.3200     280
142.4000     267
142.4800     305
142.5600     322
142.6400     390
142.7200     379
142.8000     330
142.8800     310
142.9600     337
143.0400     412
143.1200     318
143.2000     339
143.2800     396
143.3600     364
143.4400     335
143.5200     300
143.6000     366
143.6800     343
143.7600     291
143.8400     317
143.9200     274
144.0000     321
144.0800     364
144.1600     322
144.2400     310
144.3200     351
144.4000     329
144.4800     321
144.5600     415
144.6400     357
144.7200     282
144.8000     375
144.8800     228
144.9600     298
145.0400     264
145.1200     334
145.2000     349
145.2800     281
145.3600     418
145.4400     342
145.5200     349
145.6000     371
145.6800     379
145.7600     294
145.8400     408
145.9200     427
146.0000     338
146.0800     281
146.1600     230
146.2400     335
146.3200     311
146.4000     329
146.4800     316
146.5600     386
146.6400     378
146.7200     393
146.8000     438
146.8800     277
146.9600     384
147.0400     403
147.1200     460
147.2000     482
147.2800     373
147.3600     450
147.4400     436
147.5200     430
147.6000     358
147.6800     482
147.7600     331
147.8400     455
147.9200     417
148.0000     417
148.0800     372
148.1600     492
148.2400     500
148.3200     385
148.4000     468
148.4800     429
148.5600     441
148.6400     464
148.7200     453
148.8000     487
148.8800     493
148.9600     401
149.0400     487
149.1200     383
149.2000     490
149.2800     504
149.3600     526
149.4400     550
149.5200     546
149.6000     592
149.6800     576
149.7600     568
149.8400     539
149.9200     541
150.0000     607
150.0800     634
150.1600     492
150.2400     632
150.3200     635
150.4000     716
150.4800     686
150.5600     673
150.6400     822
150.7200     702
150.8000     815
150.8800     853
150.9600     839
151.0400     938
151.1200     855
151.2000    1009
151.2800     968
151.3600    1067
151.4400     989
151.5200    1103
151.6000    1188
151.6800    1257
151.7600    1498
151.8400    1587
151.9200    1653
152.0000    1791
152.0800    1839
152.1600    1873
152.2400    2018
152.3200    1952
152.4000    2145
152.4800    2337
152.5600    2146
152.6400    2396
152.7200    2479
152.8000    2700
152.8800    2648
152.9600    2726
153.0400    2748
153.1200    2810
153.2000    2564
153.2800    2463
153.3600    2886
153.4400    2584
153.5200    2783
153.6000    2738
153.6800    2548
153.7600    2561
153.8400    2419
153.9200    2514
154.0000    2115
154.0800    2188
154.1600    2331
154.2400    2191
154.3200    1990
154.4000    1781
154.4800    1774
154.5600    1916
154.6400    1697
154.7200    1698
154.8000    1449
154.8800    1533
154.9600    1541
155.0400    1430
155.1200    1309
155.2000    1301
155.2800    1254
155.3600    1278
155.4400    1075
155.5200    1104
155.6000     985
155.6800     958
155.7600     965
155.8400     974
155.9200     905
156.0000     753
156.0800     745
156.1600     643
156.2400     808
156.3200     682
156.4000     608
156.4800     817
156.5600     592
156.6400     651
156.7200     618
156.8000     583
156.8800     793
156.9600     573
157.0400     634
157.1200     697
157.2000     539
157.2800     554
157.3600     562
157.4400     530
157.5200     529
157.6000     489
157.6800     546
157.7600     519
157.8400     540
157.9200     486
158.0000     559
158.0800     458
158.1600     505
158.2400     384
158.3200     368
158.4000     412
158.4800     446
158.5600     382
158.6400     418
158.7200     386
158.8000     397
158.8800     425
158.9600     305
159.0400     409
159.1200     335
159.2000     379
159.2800     402
159.3600     472
159.4400     332
159.5200     405
159.6000     457
159.6800     268
159.7600     469
159.8400     371
159.9200     415
160.0000     319
160.0800     256
160.1600     263
160.2400     387
160.3200     239
160.4000     316
160.4800     339
160.5600     337
160.6400     295
160.7200     320
160.8000     267
160.8800     228
160.9600     292
161.0400     320
161.1200     358
161.1800     356

File: LDA_sample_name_56789_Psi-0_20180622-214022.txt
137.2000    1280
137.2800    1194
137.3600    1145
137.4400    1246
137.5200    1201
137.6000    1157
137.6800    1231
137.7600    1211
137.8400    1104
137.9200    1197
138.0000    1185
138.0800    1233
138.1600    1074
138.2400    1166
138.3200    1203
138.4000    1271
138.4800    1130
138.5600    1187
138.6400    1235
138.7200    1268
138.8000    1194
138.8800    1305
138.9600    1301
139.0400    1118
139.1200    1068
139.2000    1145
139.2800    1170
139.3600    1182
139.4400    1276
139.5200    1160
139.6000    1236
139.6800    1124
139.7600    1158
139.8400    1140
139.9200    1188
140.0000    1188
140.0800    1220
140.1600    1196
140.2400    1178
140.3200    1273
140.4000    1142
140.4800    1164
140.5600    1213
140.6400    1177
140.7200    1183
140.8000    1175
140.8800    1142
140.9600    1202
141.0400    1204
141.1200    1142
141.2000    1152
141.2800    1270
141.3600    1119
141.4400    1169
141.5200    1304
141.6000    1222
141.6800    1219
141.7600    1293
141.8400    1262
141.9200    1283
142.0000    1359
142.0800    1283
142.1600    1315
142.2400    1306
142.3200    1278
142.4000    1279
142.4800    1278
142.5600    1340
142.6400    1247
142.7200    1288
142.8000    1255
142.8800    1265
142.9600    1265
143.0400    1277
143.1200    1301
143.2000    1310
143.2800    1315
143.3600    1269
143.4400    1333
143.5200    1318
143.6000    1258
143.6800    1220
143.7600    1248
143.8400    1284
143.9200    1305
144.0000    1348
144.0800    1247
144.1600    1279
144.2400    1252
144.3200    1316
144.4000    1341
144.4800    1267
144.5600    1293
144.6400    1342
144.7200    1244
144.8000    1229
144.8800    1293
144.9600    1221
145.0400    1260
145.1200    1262
145.2000    1215
145.2800    1260
145.3600    1360
145.4400    1301
145.5200    1234
145.6000    1287
145.6800    1183
145.7600    1245
145.8400    1219
145.9200    1340
146.0000    1303
146.0800    1278
146.1600    1399
146.2400    1334
146.3200    1247
146.4000    1132
146.4800    1269
146.5600    1378
146.6400    1376
146.7200    1274
146.8000    1319
146.8800    1349
146.9600    1444
147.0400    1439
147.1200    1414
147.2000    1316
147.2800    1243
147.3600    1326
147.4400    1281
147.5200    1350
147.6000    1417
147.6800    1346
147.7600    1347
147.8400    1349
147.9200    1394
148.0000    1395
148.0800    1306
148.1600    1397
148.2400    1386
148.3200    1316
148.4000    1440
148.4800    1389
148.5600    1304
148.6400    1386
148.7200    1323
148.8000    1479
148.8800    1533
148.9600    1424
149.0400    1474
149.1200    1410
149.2000    1419
149.2800    1371
149.3600    1487
149.4400    1409
149.5200    1448
149.6000    1477
149.6800    1583
149.7600    1470
149.8400    1518
149.9200    1557
150.0000    1577
150.0800    1496
150.1600    1530
150.2400    1545
150.3200    1536
150.4000    1689
150.4800    1630
150.5600    1732
150.6400    1788
150.7200    1666
150.8000    1731
150.8800    1801
150.9600    1777
151.0400    1827
151.1200    1820
151.2000    1915
151.2800    1864
151.3600    2139
151.4400    1864
151.5200    2248
151.6000    2116
151.6800    2179
151.7600    2429
151.8400    2434
151.9200    2542
152.0000    2724
152.0800    2727
152.1600    2665
152.2400    2883
152.3200    2928
152.4000    3026
152.4800    2993
152.5600    3102
152.6400    3353
152.7200    3372
152.8000    3529
152.8800    3657
152.9600    3621
153.0400    3595
153.1200    3558
153.2000    3567
153.2800    3548
153.3600    3488
153.4400    3612
153.5200    3584
153.6000    3699
153.6800    3613
153.7600    3548
153.8400    3322
153.9200    3338
154.0000    3343
154.0800    3215
154.1600    3242
154.2400    3119
154.3200    3071
154.4000    2771
154.4800    2722
154.5600    2825
154.6400    2682
154.7200    2688
154.8000    2562
154.8800    2570
154.9600    2471
155.0400    2307
155.1200    2165
155.2000    2097
155.2800    2122
155.3600    2215
155.4400    2147
155.5200    2142
155.6000    2029
155.6800    1937
155.7600    1892
155.8400    1914
155.9200    1754
156.0000    1712
156.0800    1808
156.1600    1798
156.2400    1714
156.3200    1647
156.4000    1605
156.4800    1576
156.5600    1679
156.6400    1518
156.7200    1608
156.8000    1526
156.8800    1606
156.9600    1573
157.0400    1606
157.1200    1581
157.2000    1565
157.2800    1487
157.3600    1558
157.4400    1483
157.5200    1369
157.6000    1518
157.6800    1422
157.7600    1316
157.8400    1420
157.9200    1309
158.0000    1459
158.0800    1433
158.1600    1376
158.2400    1280
158.3200    1406
158.4000    1330
158.4800    1393
158.5600    1292
158.6400    1390
158.7200    1382
158.8000    1395
158.8800    1312
158.9600    1317
159.0400    1360
159.1200    1293
159.2000    1436
159.2800    1263
159.3600    1301
159.4400    1290
159.5200    1293
159.6000    1355
159.6800    1238
159.7600    1294
159.8400    1334
159.9200    1314
160.0000    1289
160.0800    1308
160.1600    1305
160.2400    1280
160.3200    1290
160.4000    1258
160.4800    1307
160.5600    1268
160.6400    1251
160.7200    1222
160.8000    1241
160.8800    1331
160.9600    1280
161.0400    1383
161.1200    1274
161.1800    1397

File: LDA_sample_name_56789_Psi-0_20180622-235655.txt
138.0000     305
138.0800     219
138.1600     235
138.2400     231
138.3200     176
138.4000     240
138.4800     248
138.5600     163
138.6400     193
138.7200     196
138.8000     251
138.8800     173
138.9600     288
139.0400     134
139.1200     248
139.2000     291
139.2800     124
139.3600     210
139.4400     209
139.5200     115
139.6000     177
139.6800     126
139.7600     224
139.8400     222
139.9200     163
140.0000     227
140.0800     257
140.1600     176
140.2400     200
140.3200     196
140.4000     214
140.4800     200
140.5600     212
140.6400     195
140.7200     208
140.8000     297
140.8800     164
140.9600     201
141.0400     263
141.1200     194
141.2000     159
141.2800     249
141.3600     150
141.4400     323
141.5200     193
141.6000     180
141.6800     213
141.7600     237
141.8400     196
141.9200     188
142.0000     237
142.0800     150
142.1600     215
142.2400     300
142.3200     233
142.4000     192
142.4800     253
142.5600     222
142.6400     203
142.7200     318
142.8000     313
142.8800     251
142.9600     190
143.0400     352
143.1200     346
143.2000     412
143.2800     303
143.3600     220
143.4400     188
143.5200     242
143.6000     198
143.6800     227
143.7600     339
143.8400     353
143.9200     241
144.0000     345
144.0800     269
144.1600     241
144.2400     288
144.3200     216
144.4000     263
144.4800     203
144.5600     271
144.6400     301
144.7200     273
144.8000     252
144.8800     291
144.9600     304
145.0400     296
145.1200     269
145.2000     327
145.2800     317
145.3600     265
145.4400     265
145.5200     157
145.6000     323
145.6800     290
145.7600     197
145.8400     313
145.9200     232
146.0000     319
146.0800     349
146.1600     244
146.2400     310
146.3200     332
146.4000     267
146.4800     389
146.5600     154
146.6400     357
146.7200     289
146.8000     330
146.8800     330
146.9600     280
147.0400     316
147.1200     239
147.2000     300
147.2800     304
147.3600     233
147.4400     287
147.5200     372
147.6000     307
147.6800     368
147.7600     376
147.8400     373
147.9200     338
148.0000     322
148.0800     352
148.1600     396
148.2400     237
148.3200     406
148.4000     372
148.4800     436
148.5600     385
148.6400     368
148.7200     443
148.8000     300
148.8800     325
148.9600     441
149.0400     404
149.1200     268
149.2000     463
149.2800     402
149.3600     428
149.4400     442
149.5200     395
149.6000     363
149.6800     353
149.7600     364
149.8400     435
149.9200     364
150.0000     465
150.0800     372
150.1600     372
150.2400     450
150.3200     404
150.4000     514
150.4800     537
150.5600     435
150.6400     476
150.7200     539
150.8000     384
150.8800     592
150.9600     543
151.0400     651
151.1200     512
151.2000     664
151.2800     673
151.3600     743
151.4400     662
151.5200     737
151.6000     743
151.6800     767
151.7600     751
151.8400     913
151.9200     797
152.0000     951
152.0800     934
152.1600     972
152.2400     961
152.3200    1108
152.4000    1264
152.4800    1220
152.5600    1344
152.6400    1408
152.7200    1571
152.8000    1674
152.8800    1745
152.9600    1897
153.0400    1890
153.1200    2021
153.2000    2078
153.2800    2088
153.3600    2054
153.4400    2355
153.5200    2384
153.6000    2584
153.6800    2458
153.7600    2659
153.8400    2608
153.9200    2613
154.0000    2597
154.0800    2651
154.1600    2770
154.2400    2657
154.3200    2408
154.4000    2623
154.4800    2438
154.5600    2511
154.6400    2416
154.7200    2193
154.8000    2152
154.8800    2128
154.9600    2132
155.0400    1966
155.1200    1967
155.2000    1888
155.2800    1981
155.3600    1910
155.4400    1795
155.5200    1459
155.6000    1492
155.6800    1444
155.7600    1441
155.8400    1376
155.9200    1080
156.0000    1213
156.0800    1226
156.1600    1000
156.2400    1046
156.3200    1090
156.4000     991
156.4800    1029
156.5600     816
156.6400     793
156.7200     760
156.8000     723
156.8800     703
156.9600     698
157.0400     577
157.1200     583
157.2000     585
157.2800     577
157.3600     706
157.4400     578
157.5200     609
157.6000     531
157.6800     556
157.7600     424
157.8400     539
157.9200     568
158.0000     561
158.0800     535
158.1600     424
158.2400     434
158.3200     378
158.4000     418
158.4800     402
158.5600     487
158.6400     359
158.7200     443
158.8000     223
158.8800     376
158.9600     407
159.0400     364
159.1200     436
159.2000     355
159.2800     481
159.3600     402
159.4400     333
159.5200     336
159.6000     249
159.6800     327
159.7600     371
159.8400     369
159.9200     294
160.0000     302
160.0800     357
160.1600     278
160.2400     302
160.3200     312
160.4000     342
160.4800     246
160.5600     328
160.6400     303
160.7200     204
160.8000     265
160.8800     255
160.9600     258
161.0400     319
161.1200     321
161.2000     222
161.2800     305
161.3600     260
161.4400     150
161.5200     262
161.6000     272
161.6800      99
161.7600     208
161.8400     300
161.9200     208
161.9800     327

File: LDA_sample_name_56789_Psi-0_20180622-235809.txt
141.0000     188
141.0800     263
141.1600     286
141.2400     236
141.3200     267
141.4000     290
141.4800     326
141.5600     177
141.6400     232
141.7200     243
141.8000     237
141.8800     233
141.9600     234
142.0400     228
142.1200     325
142.2000     294
142.2800     272
142.3600     295
142.4400     271
142.5200     173
142.6000     287
142.6800     244
142.7600     247
142.8400     262
142.9200     306
143.0000     271
143.0800     245
143.1600     332
143.2400     303
143.3200     223
143.4000     165
143.4800     215
143.5600     243
143.6400     215
143.7200     293
143.8000     273
143.8800     264
143.9600     277
144.0400     236
144.1200     274
144.2000     343
144.2800     274
144.3600     246
144.4400     265
144.5200     348
144.6000     258
144.6800     265
144.7600     284
144.8400     260
144.9200     169
145.0000     287
145.0800     253
145.1600     332
145.2400     331
145.3200     367
145.4000     307
145.4800     314
145.5600     368
145.6400     269
145.7200     270
145.8000     422
145.8800     298
145.9600     352
146.0400     278
146.1200     332
146.2000     288
146.2800     385
146.3600     375
146.4400     324
146.5200     345
146.6000     357
146.6800     293
146.7600     298
146.8400     326
146.9200     349
147.0000     388
147.0800     273
147.1600     394
147.2400     411
147.3200     401
147.4000     402
147.4800     327
147.5600     331
147.6400     255
147.7200     319
147.8000     352
147.8800     294
147.9600     378
148.0400     348
148.1200     361
148.2000     352
148.2800     368
148.3600     307
148.4400     321
148.5200     391
148.6000     347
148.6800     315
148.7600     334
148.8400     386
148.9200     387
149.0000     450
149.0800     372
149.1600     401
149.2400     302
149.3200     300
149.4000     390
149.4800     336
149.5600     405
149.6400     419
149.7200     293
149.8000     431
149.8800     383
149.9600     422
150.0400     453
150.1200     533
150.2000     370
150.2800     572
150.3600     484
150.4400     571
150.5200     474
150.6000     599
150.6800     566
150.7600     645
150.8400     614
150.9200     704
151.0000     739
151.0800     608
151.1600     690
151.2400     680
151.3200     687
151.4000     733
151.4800     727
151.5600     793
151.6400     834
151.7200     916
151.8000    1081
151.8800     818
151.9600     908
152.0400     961
152.1200     940
152.2000    1140
152.2800    1227
152.3600    1109
152.4400    1149
152.5200    1418
152.6000    1489
152.6800    1457
152.7600    1698
152.8400    1693
152.9200    1706
153.0000    1949
153.0800    1821
153.1600    2158
153.2400    2193
153.3200    2458
153.4000    2287
153.4800    2456
153.5600    2521
153.6400    2531
153.7200    2639
153.8000    2732
153.8800    2631
153.9600    2585
154.0400    2726
154.1200    2675
154.2000    2812
154.2800    2870
154.3600    2748
154.4400    2855
154.5200    2678
154.6000    2679
154.6800    2484
154.7600    2456
154.8400    2222
154.9200    2131
155.0000    2161
155.0800    2092
155.1600    1973
155.2400    1928
155.3200    1838
155.4000    1726
155.4800    1648
155.5600    1741
155.6400    1823
155.7200    1711
155.8000    1504
155.8800    1354
155.9600    1420
156.0400    1238
156.1200    1236
156.2000    1180
156.2800    1049
156.3600    1018
156.4400     956
156.5200    1067
156.6000     897
156.6800     891
156.7600     803
156.8400     863
156.9200     870
157.0000     810
157.0800     578
157.1600     740
157.2400     704
157.3200     693
157.4000     690
157.4800     572
157.5600     646
157.6400     645
157.7200     622
157.8000     548
157.8800     582
157.9600     554
158.0400     575
158.1200     547
158.2000     510
158.2800     462
158.3600     508
158.4400     547
158.5200     490
158.6000     418
158.6800     436
158.7600     519
158.8400     468
158.9200     594
159.0000     417
159.0800     340
159.1600     394
159.2400     343
159.3200     468
159.4000     404
159.4800     488
159.5600     507
159.6400     378
159.7200     376
159.8000     414
159.8800     479
159.9600     395
160.0400     475
160.1200     489
160.2000     374
160.2800     360
160.3600     417
160.4400     363
160.5200     368
160.6000     409
160.6800     397
160.7600     456
160.8400     462
160.9200     405
161.0000     333
161.0800     344
161.1600     394
161.2400     358
161.3200     300
161.4000     387
161.4800     349
161.5600     391
161.6400     238
161.7200     379
161.8000     383
161.8800     382
161.9600     288
162.0400     434
162.1200     308
162.2000     354
162.2800     272
162.3600     349
162.4400     433
162.5200     309
162.6000     251
162.6800     329
162.7600     371
162.8400     370
162.9200     318
163.0000     388
163.0800     355
163.1600     312
163.2400     252
163.3200     283
163.4000     317
163.4800     313
163.5600     329
163.6400     250
163.7200     299
163.8000     268
163.8800     314
163.9600     248
164.0400     202
164.1200     324
164.2000     342
164.2800     263
164.3600     271
164.4400     289
164.5200     304
164.6000     237
164.6800     251
164.7600     240
164.8400     370
164.9200     282
164.9800     242