Folder: xrd/XRD_Tool/XRD_Tool/bin/Debug (part 28)

File: SDD_sample_name_01234_Psi-30_20180602-173914.txt
 150.0000       89
 150.0200      113
 150.0400       92
 150.0600       98
 150.0800      100
 150.1000      116
 150.1200      107
 150.1400       91
 150.1600       94
 150.1800       97
 150.2000      110
 150.2200      101
 150.2400      124
 150.2600      127
 150.2800      102
 150.3000       94
 150.3200      112
 150.3400      106
 150.3600      101
 150.3800      128
 150.4000      114
 150.4200      109
 150.4400      114
 150.4600      104
 150.4800      136
 150.5000      126
 150.5200      110
 150.5400      102
 150.5600      124
 150.5800      120
 150.6000      115
 150.6200      108
 150.6400      125
 150.6600      119
 150.6800      133
 150.7000      126
 150.7200      128
 150.7400      126
 150.7600      127
 150.7800      134
 150.8000      129
 150.8200      134
 150.8400      119
 150.8600      124
 150.8800      118
 150.9000      143
 150.9200      125
 150.9400      125
 150.9600      154
 150.9800      138
 151.0000      138
 151.0200      139
 151.0400      153
 151.0600      139
 151.0800      144
 151.1000      133
 151.1200      150
 151.1400      119
 151.1600      142
 151.1800      143
 151.2000      130
 151.2200      148
 151.2400      131
 151.2600      134
 151.2800      138
 151.3000      132
 151.3200      159
 151.3400      130
 151.3600      134
 151.3800      143
 151.4000      161
 151.4200      143
 151.4400      154
 151.4600      171
 151.4800      154
 151.5000      159
 151.5200      162
 151.5400      175
 151.5600      172
 151.5800      152
 151.6000      168
 151.6200      168
 151.6400      157
 151.6600      161
 151.6800      161
 151.7000      163
 151.7200      152
 151.7400      182
 151.7600      179
 151.7800      196
 151.8000      188
 151.8200      178
 151.8400      168
 151.8600      167
 151.8800      193
 151.9000      172
 151.9200      167
 151.9400      187
 151.9600      196
 151.9800      186
 152.0000      188
 152.0200      192
 152.0400      201
 152.0600      204
 152.0800      194
 152.1000      177
 152.1200      176
 152.1400      171
 152.1600      205
 152.1800      196
 152.2000      235
 152.2200      222
 152.2400      218
 152.2600      198
 152.2800      227
 152.3000      221
 152.3200      194
 152.3400      194
 152.3600      235
 152.3800      214
 152.4000      245
 152.4200      214
 152.4400      208
 152.4600      223
 152.4800      226
 152.5000      227
 152.5200      239
 152.5400      182
 152.5600      246
 152.5800      228
 152.6000      243
 152.6200      266
 152.6400      237
 152.6600      191
 152.6800      242
 152.7000      229
 152.7200      247
 152.7400      247
 152.7600      243
 152.7800      271
 152.8000      249
 152.8200      258
 152.8400      261
 152.8600      244
 152.8800      217
 152.9000      250
 152.9200      254
 152.9400      246
 152.9600      245
 152.9800      253
 153.0000      278
 153.0200      265
 153.0400      295
 153.0600      305
 153.0800      252
 153.1000      271
 153.1200      253
 153.1400      281
 153.1600      280
 153.1800      293
 153.2000      299
 153.2200      304
 153.2400      291
 153.2600      290
 153.2800      269
 153.3000      296
 153.3200      289
 153.3400      296
 153.3600      290
 153.3800      345
 153.4000      306
 153.4200      314
 153.4400      278
 153.4600      320
 153.4800      328
 153.5000      318
 153.5200      327
 153.5400      365
 153.5600      324
 153.5800      291
 153.6000      315
 153.6200      307
 153.6400      338
 153.6600      305
 153.6800      309
 153.7000      331
 153.7200      346
 153.7400      341
 153.7600      346
 153.7800      318
 153.8000      335
 153.8200      353
 153.8400      327
 153.8600      332
 153.8800      371
 153.9000      317
 153.9200      339
 153.9400      360
 153.9600      360
 153.9800      375
 154.0000      318
 154.0200      387
 154.0400      365
 154.0600      360
 154.0800      355
 154.1000      363
 154.1200      394
 154.1400      377
 154.1600      403
 154.1800      380
 154.2000      365
 154.2200      368
 154.2400      350
 154.2600      375
 154.2800      382
 154.3000      350
 154.3200      364
 154.3400      391
 154.3600      378
 154.3800      377
 154.4000      373
 154.4200      383
 154.4400      364
 154.4600      389
 154.4800      391
 154.5000      413
 154.5200      352
 154.5400      411
 154.5600      386
 154.5800      408
 154.6000      428
 154.6200      375
 154.6400      378
 154.6600      403
 154.6800      415
 154.7000      382
 154.7200      392
 154.7400      423
 154.7600      426
 154.7800      426
 154.8000      400
 154.8200      428
 154.8400      394
 154.8600      421
 154.8800      411
 154.9000      381
 154.9200      415
 154.9400      413
 154.9600      432
 154.9800      398
 155.0000      415

File: SDD_sample_name_01234_Psi-45_20180602-101358.txt
 145.0000       42
 145.0400       39
 145.0800       37
 145.1200       31
 145.1600       29
 145.2000       36
 145.2400       44
 145.2800       26
 145.3200       46
 145.3600       36
 145.4000       37
 145.4400       42
 145.4800       32
 145.5200       41
 145.5600       32
 145.6000       36
 145.6400       35
 145.6800       36
 145.7200       41
 145.7600       36
 145.8000       39
 145.8400       25
 145.8800       36
 145.9200       41
 145.9600       41
 146.0000       33
 146.0400       42
 146.0800       43
 146.1200       38
 146.1600       38
 146.2000       45
 146.2400       45
 146.2800       34
 146.3200       33
 146.3600       39
 146.4000       34
 146.4400       50
 146.4800       47
 146.5200       36
 146.5600       35
 146.6000       39
 146.6400       47
 146.6800       37
 146.7200       33
 146.7600       33
 146.8000       33
 146.8400       37
 146.8800       43
 146.9200       40
 146.9600       41
 147.0000       45
 147.0400       48
 147.0800       32
 147.1200       42
 147.1600       29
 147.2000       31
 147.2400       41
 147.2800       49
 147.3200       30
 147.3600       42
 147.4000       43
 147.4400       38
 147.4800       35
 147.5200       39
 147.5600       33
 147.6000       39
 147.6400       53
 147.6800       30
 147.7200       41
 147.7600       37
 147.8000       40
 147.8400       42
 147.8800       43
 147.9200       39
 147.9600       30
 148.0000       32
 148.0400       42
 148.0800       37
 148.1200       39
 148.1600       27
 148.2000       36
 148.2400       46
 148.2800       48
 148.3200       35
 148.3600       39
 148.4000       33
 148.4400       29
 148.4800       44
 148.5200       35
 148.5600       42
 148.6000       38
 148.6400       42
 148.6800       32
 148.7200       46
 148.7600       53
 148.8000       38
 148.8400       44
 148.8800       41
 148.9200       39
 148.9600       49
 149.0000       51
 149.0400       49
 149.0800       40
 149.1200       40
 149.1600       46
 149.2000       48
 149.2400       36
 149.2800       68
 149.3200       47
 149.3600       50
 149.4000       34
 149.4400       40
 149.4800       42
 149.5200       49
 149.5600       50
 149.6000       34
 149.6400       51
 149.6800       59
 149.7200       44
 149.7600       51
 149.8000       40
 149.8400       54
 149.8800       45
 149.9200       50
 149.9600       47
 150.0000       32
 150.0400       43
 150.0800       53
 150.1200       39
 150.1600       55
 150.2000       49
 150.2400       68
 150.2800       47
 150.3200       45
 150.3600       54
 150.4000       52
 150.4400       55
 150.4800       50
 150.5200       44
 150.5600       40
 150.6000       51
 150.6400       46
 150.6800       39
 150.7200       57
 150.7600       47
 150.8000       60
 150.8400       55
 150.8800       49
 150.9200       52
 150.9600       50
 151.0000       51
 151.0400       70
 151.0800       58
 151.1200       68
 151.1600       54
 151.2000       51
 151.2400       68
 151.2800       51
 151.3200       61
 151.3600       73
 151.4000       67
 151.4400       70
 151.4800       71
 151.5200       52
 151.5600       65
 151.6000       71
 151.6400       60
 151.6800       81
 151.7200       71
 151.7600       63
 151.8000       65
 151.8400       81
 151.8800       61
 151.9200       79
 151.9600       66
 152.0000       81
 152.0400       75
 152.0800       69
 152.1200       99
 152.1600      100
 152.2000       97
 152.2400       96
 152.2800       86
 152.3200       75
 152.3600       72
 152.4000       93
 152.4400       90
 152.4800       90
 152.5200      102
 152.5600      123
 152.6000      109
 152.6400      107
 152.6800      106
 152.7200      122
 152.7600       95
 152.8000      108
 152.8400      109
 152.8800      116
 152.9200      136
 152.9600      119
 153.0000      120
 153.0400      140
 153.0800      137
 153.1200      133
 153.1600      144
 153.2000      141
 153.2400      131
 153.2800      152
 153.3200      110
 153.3600      163
 153.4000      161
 153.4400      167
 153.4800      187
 153.5200      183
 153.5600      200
 153.6000      179
 153.6400      201
 153.6800      198
 153.7200      196
 153.7600      224
 153.8000      210
 153.8400      228
 153.8800      235
 153.9200      235
 153.9600      249
 154.0000      241
 154.0400      288
 154.0800      288
 154.1200      246
 154.1600      278
 154.2000      277
 154.2400      293
 154.2800      282
 154.3200      279
 154.3600      321
 154.4000      335
 154.4400      316
 154.4800      363
 154.5200      345
 154.5600      347
 154.6000      347
 154.6400      357
 154.6800      406
 154.7200      369
 154.7600      395
 154.8000      368
 154.8400      379
 154.8800      348
 154.9200      371
 154.9600      379
 155.0000      383

File: SDD_sample_name_01234_Psi-45_20180602-171742.txt
 150.0000       67
 150.0200       93
 150.0400       90
 150.0600       93
 150.0800       81
 150.1000       99
 150.1200       93
 150.1400      113
 150.1600      107
 150.1800       95
 150.2000      116
 150.2200       93
 150.2400       96
 150.2600       95
 150.2800       84
 150.3000      107
 150.3200       96
 150.3400      102
 150.3600      106
 150.3800      103
 150.4000      108
 150.4200       98
 150.4400       98
 150.4600       97
 150.4800      103
 150.5000       96
 150.5200       91
 150.5400       96
 150.5600       97
 150.5800      116
 150.6000      120
 150.6200       97
 150.6400      101
 150.6600      101
 150.6800       96
 150.7000      110
 150.7200      116
 150.7400      113
 150.7600      110
 150.7800      105
 150.8000      101
 150.8200      101
 150.8400      100
 150.8600      101
 150.8800      111
 150.9000       97
 150.9200      121
 150.9400       90
 150.9600      131
 150.9800      123
 151.0000       96
 151.0200      104
 151.0400      123
 151.0600      122
 151.0800      113
 151.1000      101
 151.1200      120
 151.1400      111
 151.1600      125
 151.1800      124
 151.2000      135
 151.2200      119
 151.2400      138
 151.2600      118
 151.2800      119
 151.3000      122
 151.3200      137
 151.3400      133
 151.3600      135
 151.3800      126
 151.4000      135
 151.4200      136
 151.4400      132
 151.4600      121
 151.4800      133
 151.5000      134
 151.5200      133
 151.5400      127
 151.5600      121
 151.5800      147
 151.6000      146
 151.6200      139
 151.6400      158
 151.6600      143
 151.6800      146
 151.7000      152
 151.7200      139
 151.7400      148
 151.7600      140
 151.7800      148
 151.8000      154
 151.8200      134
 151.8400      132
 151.8600      145
 151.8800      124
 151.9000      137
 151.9200      158
 151.9400      174
 151.9600      154
 151.9800      155
 152.0000      140
 152.0200      154
 152.0400      151
 152.0600      172
 152.0800      143
 152.1000      162
 152.1200      170
 152.1400      150
 152.1600      164
 152.1800      145
 152.2000      155
 152.2200      163
 152.2400      158
 152.2600      188
 152.2800      184
 152.3000      162
 152.3200      182
 152.3400      191
 152.3600      154
 152.3800      179
 152.4000      197
 152.4200      213
 152.4400      179
 152.4600      165
 152.4800      182
 152.5000      161
 152.5200      169
 152.5400      181
 152.5600      197
 152.5800      191
 152.6000      173
 152.6200      203
 152.6400      188
 152.6600      172
 152.6800      195
 152.7000      185
 152.7200      183
 152.7400      196
 152.7600      170
 152.7800      223
 152.8000      179
 152.8200      212
 152.8400      206
 152.8600      194
 152.8800      212
 152.9000      186
 152.9200      222
 152.9400      204
 152.9600      200
 152.9800      220
 153.0000      214
 153.0200      214
 153.0400      239
 153.0600      224
 153.0800      211
 153.1000      199
 153.1200      236
 153.1400      235
 153.1600      216
 153.1800      219
 153.2000      202
 153.2200      267
 153.2400      231
 153.2600      235
 153.2800      254
 153.3000      239
 153.3200      255
 153.3400      242
 153.3600      274
 153.3800      280
 153.4000      257
 153.4200      219
 153.4400      239
 153.4600      250
 153.4800      245
 153.5000      273
 153.5200      249
 153.5400      244
 153.5600      236
 153.5800      277
 153.6000      261
 153.6200      284
 153.6400      269
 153.6600      271
 153.6800      270
 153.7000      281
 153.7200      255
 153.7400      266
 153.7600      246
 153.7800      240
 153.8000      277
 153.8200      286
 153.8400      300
 153.8600      270
 153.8800      304
 153.9000      271
 153.9200      306
 153.9400      275
 153.9600      305
 153.9800      301
 154.0000      300
 154.0200      268
 154.0400      283
 154.0600      268
 154.0800      283
 154.1000      297
 154.1200      285
 154.1400      319
 154.1600      284
 154.1800      328
 154.2000      322
 154.2200      299
 154.2400      320
 154.2600      326
 154.2800      337
 154.3000      323
 154.3200      313
 154.3400      301
 154.3600      335
 154.3800      332
 154.4000      333
 154.4200      306
 154.4400      332
 154.4600      365
 154.4800      325
 154.5000      362
 154.5200      309
 154.5400      339
 154.5600      345
 154.5800      334
 154.6000      328
 154.6200      354
 154.6400      362
 154.6600      332
 154.6800      355
 154.7000      371
 154.7200      347
 154.7400      383
 154.7600      340
 154.7800      324
 154.8000      351
 154.8200      363
 154.8400      368
 154.8600      353
 154.8800      368
 154.9000      338
 154.9200      380
 154.9400      376
 154.9600      361
 154.9800      378
 155.0000      377

File: SDD_sample_name_01234_Psi-45_20180602-173134.txt
 150.0000      108
 150.0200       89
 150.0400      104
 150.0600       93
 150.0800       94
 150.1000       88
 150.1200       82
 150.1400       94
 150.1600      103
 150.1800       95
 150.2000       98
 150.2200       97
 150.2400       91
 150.2600       88
 150.2800      109
 150.3000       96
 150.3200       98
 150.3400       91
 150.3600       96
 150.3800      100
 150.4000      121
 150.4200       90
 150.4400      104
 150.4600       98
 150.4800      108
 150.5000       93
 150.5200      106
 150.5400      117
 150.5600       91
 150.5800      111
 150.6000      109
 150.6200       94
 150.6400       94
 150.6600      108
 150.6800      111
 150.7000      104
 150.7200       92
 150.7400      103
 150.7600      110
 150.7800      107
 150.8000      119
 150.8200       94
 150.8400      132
 150.8600      111
 150.8800      112
 150.9000      138
 150.9200      100
 150.9400      106
 150.9600      127
 150.9800      119
 151.0000      112
 151.0200      116
 151.0400      109
 151.0600      132
 151.0800      115
 151.1000      129
 151.1200      116
 151.1400      113
 151.1600      121
 151.1800      115
 151.2000      125
 151.2200      133
 151.2400      113
 151.2600      113
 151.2800      133
 151.3000      135
 151.3200      131
 151.3400      119
 151.3600      131
 151.3800      124
 151.4000      143
 151.4200      137
 151.4400      139
 151.4600      126
 151.4800      115
 151.5000      121
 151.5200      129
 151.5400      138
 151.5600      109
 151.5800      159
 151.6000      133
 151.6200      118
 151.6400      146
 151.6600      129
 151.6800      133
 151.7000      160
 151.7200      136
 151.7400      157
 151.7600      132
 151.7800      146
 151.8000      161
 151.8200      132
 151.8400      150
 151.8600      142
 151.8800      160
 151.9000      157
 151.9200      147
 151.9400      143
 151.9600      153
 151.9800      165
 152.0000      153
 152.0200      139
 152.0400      177
 152.0600      169
 152.0800      138
 152.1000      174
 152.1200      145
 152.1400      154
 152.1600      172
 152.1800      173
 152.2000      176
 152.2200      144
 152.2400      168
 152.2600      167
 152.2800      160
 152.3000      199
 152.3200      178
 152.3400      186
 152.3600      162
 152.3800      162
 152.4000      175
 152.4200      175
 152.4400      178
 152.4600      179
 152.4800      195
 152.5000      184
 152.5200      184
 152.5400      198
 152.5600      179
 152.5800      211
 152.6000      185
 152.6200      180
 152.6400      210
 152.6600      182
 152.6800      174
 152.7000      190
 152.7200      211
 152.7400      211
 152.7600      203
 152.7800      211
 152.8000      192
 152.8200      202
 152.8400      213
 152.8600      204
 152.8800      218
 152.9000      211
 152.9200      205
 152.9400      199
 152.9600      213
 152.9800      186
 153.0000      225
 153.0200      211
 153.0400      219
 153.0600      227
 153.0800      202
 153.1000      228
 153.1200      272
 153.1400      213
 153.1600      229
 153.1800      225
 153.2000      222
 153.2200      259
 153.2400      220
 153.2600      225
 153.2800      252
 153.3000      244
 153.3200      224
 153.3400      228
 153.3600      238
 153.3800      198
 153.4000      262
 153.4200      236
 153.4400      242
 153.4600      261
 153.4800      252
 153.5000      241
 153.5200      284
 153.5400      250
 153.5600      276
 153.5800      263
 153.6000      254
 153.6200      271
 153.6400      256
 153.6600      239
 153.6800      254
 153.7000      259
 153.7200      281
 153.7400      238
 153.7600      267
 153.7800      281
 153.8000      259
 153.8200      292
 153.8400      284
 153.8600      297
 153.8800      276
 153.9000      264
 153.9200      277
 153.9400      283
 153.9600      294
 153.9800      295
 154.0000      285
 154.0200      302
 154.0400      298
 154.0600      268
 154.0800      310
 154.1000      346
 154.1200      285
 154.1400      311
 154.1600      313
 154.1800      299
 154.2000      315
 154.2200      294
 154.2400      320
 154.2600      325
 154.2800      306
 154.3000      340
 154.3200      333
 154.3400      299
 154.3600      326
 154.3800      331
 154.4000      313
 154.4200      322
 154.4400      325
 154.4600      309
 154.4800      341
 154.5000      312
 154.5200      332
 154.5400      380
 154.5600      306
 154.5800      374
 154.6000      325
 154.6200      324
 154.6400      343
 154.6600      309
 154.6800      343
 154.7000      352
 154.7200      364
 154.7400      347
 154.7600      344
 154.7800      361
 154.8000      389
 154.8200      334
 154.8400      373
 154.8600      368
 154.8800      353
 154.9000      352
 154.9200      361
 154.9400      340
 154.9600      421
 154.9800      354
 155.0000      381

File: SDD_sample_name_01234_Psi-45_20180602-173518.txt
 150.0000      102
 150.0200       89
 150.0400      103
 150.0600      106
 150.0800       90
 150.1000       95
 150.1200      105
 150.1400       95
 150.1600       86
 150.1800      107
 150.2000       85
 150.2200      121
 150.2400       97
 150.2600       94
 150.2800       83
 150.3000      106
 150.3200       96
 150.3400       87
 150.3600      107
 150.3800      101
 150.4000       87
 150.4200      104
 150.4400       93
 150.4600       98
 150.4800       91
 150.5000       92
 150.5200       91
 150.5400      100
 150.5600       89
 150.5800      106
 150.6000       96
 150.6200      105
 150.6400      112
 150.6600       92
 150.6800      107
 150.7000      106
 150.7200      119
 150.7400      107
 150.7600      100
 150.7800       95
 150.8000      113
 150.8200      124
 150.8400      115
 150.8600      110
 150.8800      124
 150.9000      115
 150.9200      114
 150.9400      134
 150.9600      105
 150.9800      105
 151.0000      125
 151.0200      108
 151.0400       98
 151.0600       99
 151.0800      134
 151.1000      133
 151.1200      136
 151.1400      123
 151.1600      132
 151.1800      106
 151.2000      123
 151.2200      128
 151.2400      132
 151.2600      142
 151.2800      131
 151.3000      148
 151.3200      123
 151.3400      122
 151.3600      116
 151.3800      120
 151.4000      159
 151.4200      137
 151.4400      142
 151.4600      131
 151.4800      127
 151.5000      161
 151.5200      126
 151.5400      136
 151.5600      135
 151.5800      142
 151.6000      138
 151.6200      151
 151.6400      140
 151.6600      136
 151.6800      133
 151.7000      144
 151.7200      144
 151.7400      157
 151.7600      142
 151.7800      168
 151.8000      140
 151.8200      161
 151.8400      162
 151.8600      156
 151.8800      135
 151.9000      155
 151.9200      149
 151.9400      150
 151.9600      154
 151.9800      143
 152.0000      151
 152.0200      152
 152.0400      151
 152.0600      164
 152.0800      167
 152.1000      162
 152.1200      173
 152.1400      170
 152.1600      159
 152.1800      167
 152.2000      153
 152.2200      159
 152.2400      166
 152.2600      159
 152.2800      156
 152.3000      172
 152.3200      183
 152.3400      184
 152.3600      163
 152.3800      214
 152.4000      162
 152.4200      167
 152.4400      171
 152.4600      177
 152.4800      167
 152.5000      185
 152.5200      181
 152.5400      164
 152.5600      213
 152.5800      173
 152.6000      191
 152.6200      176
 152.6400      215
 152.6600      170
 152.6800      176
 152.7000      201
 152.7200      197
 152.7400      186
 152.7600      191
 152.7800      211
 152.8000      188
 152.8200      221
 152.8400      207
 152.8600      187
 152.8800      200
 152.9000      200
 152.9200      208
 152.9400      213
 152.9600      206
 152.9800      223
 153.0000      218
 153.0200      218
 153.0400      212
 153.0600      237
 153.0800      228
 153.1000      236
 153.1200      247
 153.1400      229
 153.1600      235
 153.1800      229
 153.2000      253
 153.2200      210
 153.2400      246
 153.2600      210
 153.2800      261
 153.3000      244
 153.3200      251
 153.3400      236
 153.3600      222
 153.3800      217
 153.4000      236
 153.4200      225
 153.4400      239
 153.4600      290
 153.4800      259
 153.5000      275
 153.5200      267
 153.5400      262
 153.5600      259
 153.5800      257
 153.6000      233
 153.6200      255
 153.6400      250
 153.6600      271
 153.6800      262
 153.7000      284
 153.7200      254
 153.7400      261
 153.7600      241
 153.7800      280
 153.8000      254
 153.8200      296
 153.8400      281
 153.8600      279
 153.8800      283
 153.9000      305
 153.9200      322
 153.9400      286
 153.9600      308
 153.9800      309
 154.0000      273
 154.0200      314
 154.0400      306
 154.0600      285
 154.0800      301
 154.1000      310
 154.1200      316
 154.1400      276
 154.1600      327
 154.1800      301
 154.2000      283
 154.2200      331
 154.2400      323
 154.2600      308
 154.2800      307
 154.3000      292
 154.3200      305
 154.3400      337
 154.3600      324
 154.3800      317
 154.4000      345
 154.4200      309
 154.4400      332
 154.4600      330
 154.4800      302
 154.5000      348
 154.5200      349
 154.5400      336
 154.5600      326
 154.5800      320
 154.6000      342
 154.6200      335
 154.6400      371
 154.6600      343
 154.6800      352
 154.7000      330
 154.7200      347
 154.7400      368
 154.7600      345
 154.7800      374
 154.8000      351
 154.8200      346
 154.8400      367
 154.8600      339
 154.8800      357
 154.9000      362
 154.9200      370
 154.9400      334
 154.9600      359
 154.9800      399
 155.0000      336