Folder: xrd/XRD_Tool/XRD_Tool/bin/Debug (part 8)

File: LDA_sample_name_56789_Psi-0_20180623-125505.txt
138.0000     297
138.0800     318
138.1600     245
138.2400     287
138.3200     213
138.4000     227
138.4800     357
138.5600     214
138.6400     278
138.7200     382
138.8000     300
138.8800     288
138.9600     235
139.0400     252
139.1200     214
139.2000     316
139.2800     320
139.3600     275
139.4400     342
139.5200     314
139.6000     286
139.6800     269
139.7600     205
139.8400     134
139.9200     276
140.0000     242
140.0800     267
140.1600     288
140.2400     271
140.3200     219
140.4000     293
140.4800     373
140.5600     333
140.6400     232
140.7200     258
140.8000     295
140.8800     223
140.9600     361
141.0400     236
141.1200     250
141.2000     280
141.2800     321
141.3600     369
141.4400     293
141.5200     215
141.6000     265
141.6800     331
141.7600     295
141.8400     232
141.9200     289
142.0000     274
142.0800     230
142.1600     237
142.2400     222
142.3200     316
142.4000     413
142.4800     388
142.5600     441
142.6400     364
142.7200     389
142.8000     395
142.8800     352
142.9600     389
143.0400     266
143.1200     317
143.2000     306
143.2800     413
143.3600     223
143.4400     366
143.5200     342
143.6000     353
143.6800     318
143.7600     257
143.8400     349
143.9200     353
144.0000     351
144.0800     353
144.1600     365
144.2400     427
144.3200     318
144.4000     315
144.4800     466
144.5600     290
144.6400     322
144.7200     428
144.8000     264
144.8800     303
144.9600     318
145.0400     439
145.1200     330
145.2000     387
145.2800     316
145.3600     368
145.4400     249
145.5200     296
145.6000     313
145.6800     332
145.7600     335
145.8400     302
145.9200     313
146.0000     342
146.0800     350
146.1600     406
146.2400     279
146.3200     469
146.4000     394
146.4800     342
146.5600     285
146.6400     275
146.7200     420
146.8000     352
146.8800     400
146.9600     389
147.0400     299
147.1200     327
147.2000     352
147.2800     332
147.3600     380
147.4400     356
147.5200     329
147.6000     334
147.6800     453
147.7600     366
147.8400     400
147.9200     421
148.0000     383
148.0800     445
148.1600     436
148.2400     434
148.3200     474
148.4000     350
148.4800     471
148.5600     349
148.6400     510
148.7200     450
148.8000     377
148.8800     332
148.9600     480
149.0400     438
149.1200     316
149.2000     374
149.2800     474
149.3600     521
149.4400     444
149.5200     402
149.6000     458
149.6800     389
149.7600     496
149.8400     575
149.9200     534
150.0000     528
150.0800     583
150.1600     536
150.2400     479
150.3200     594
150.4000     426
150.4800     588
150.5600     562
150.6400     578
150.7200     644
150.8000     637
150.8800     579
150.9600     582
151.0400     630
151.1200     599
151.2000     678
151.2800     580
151.3600     767
151.4400     712
151.5200     797
151.6000     825
151.6800     778
151.7600     790
151.8400     902
151.9200     987
152.0000     877
152.0800    1015
152.1600    1137
152.2400    1086
152.3200    1190
152.4000    1250
152.4800    1313
152.5600    1403
152.6400    1458
152.7200    1595
152.8000    1774
152.8800    1720
152.9600    1829
153.0400    1778
153.1200    1887
153.2000    2143
153.2800    1983
153.3600    2358
153.4400    2366
153.5200    2356
153.6000    2466
153.6800    2592
153.7600    2433
153.8400    2762
153.9200    2926
154.0000    2507
154.0800    2501
154.1600    2784
154.2400    2547
154.3200    2680
154.4000    2614
154.4800    2527
154.5600    2648
154.6400    2385
154.7200    2420
154.8000    2249
154.8800    2144
154.9600    2401
155.0400    2239
155.1200    1903
155.2000    2163
155.2800    1745
155.3600    1855
155.4400    1733
155.5200    1700
155.6000    1589
155.6800    1463
155.7600    1425
155.8400    1522
155.9200    1295
156.0000    1264
156.0800    1179
156.1600    1131
156.2400    1177
156.3200    1072
156.4000     970
156.4800    1137
156.5600     902
156.6400     932
156.7200     830
156.8000     874
156.8800     755
156.9600     745
157.0400     833
157.1200     632
157.2000     713
157.2800     695
157.3600     628
157.4400     702
157.5200     610
157.6000     542
157.6800     613
157.7600     701
157.8400     591
157.9200     561
158.0000     621
158.0800     514
158.1600     465
158.2400     495
158.3200     533
158.4000     495
158.4800     488
158.5600     612
158.6400     574
158.7200     518
158.8000     521
158.8800     457
158.9600     616
159.0400     423
159.1200     551
159.2000     447
159.2800     517
159.3600     487
159.4400     445
159.5200     436
159.6000     501
159.6800     444
159.7600     488
159.8400     459
159.9200     488
160.0000     509
160.0800     408
160.1600     448
160.2400     429
160.3200     297
160.4000     424
160.4800     375
160.5600     335
160.6400     286
160.7200     394
160.8000     362
160.8800     434
160.9600     344
161.0400     424
161.1200     230
161.2000     261
161.2800     369
161.3600     401
161.4400     292
161.5200     373
161.6000     176
161.6800     357
161.7600     348
161.8400     358
161.9200     259
161.9800     387

File: LDA_sample_name_56789_Psi-0_20180623-125556.txt
138.0000     260
138.0800     179
138.1600     325
138.2400     260
138.3200     210
138.4000     288
138.4800     243
138.5600     232
138.6400     240
138.7200     241
138.8000     219
138.8800     266
138.9600     232
139.0400     200
139.1200     246
139.2000     291
139.2800     173
139.3600     284
139.4400     225
139.5200     237
139.6000     187
139.6800     312
139.7600     177
139.8400     326
139.9200     227
140.0000     144
140.0800     282
140.1600     231
140.2400     223
140.3200     171
140.4000     200
140.4800     199
140.5600     251
140.6400     228
140.7200     276
140.8000     269
140.8800     246
140.9600     241
141.0400     182
141.1200     163
141.2000     239
141.2800     297
141.3600     252
141.4400     199
141.5200     314
141.6000     266
141.6800     189
141.7600     236
141.8400     265
141.9200     350
142.0000     227
142.0800     164
142.1600     279
142.2400     273
142.3200     333
142.4000     309
142.4800     259
142.5600     268
142.6400     204
142.7200     283
142.8000     243
142.8800     324
142.9600     293
143.0400     355
143.1200     318
143.2000     267
143.2800     242
143.3600     350
143.4400     274
143.5200     216
143.6000     306
143.6800     281
143.7600     277
143.8400     270
143.9200     305
144.0000     307
144.0800     369
144.1600     298
144.2400     324
144.3200     282
144.4000     282
144.4800     188
144.5600     343
144.6400     347
144.7200     315
144.8000     297
144.8800     409
144.9600     324
145.0400     326
145.1200     262
145.2000     309
145.2800     232
145.3600     272
145.4400     237
145.5200     288
145.6000     396
145.6800     287
145.7600     369
145.8400     323
145.9200     258
146.0000     332
146.0800     292
146.1600     309
146.2400     333
146.3200     289
146.4000     214
146.4800     248
146.5600     370
146.6400     324
146.7200     275
146.8000     344
146.8800     391
146.9600     357
147.0400     247
147.1200     312
147.2000     339
147.2800     213
147.3600     377
147.4400     446
147.5200     304
147.6000     308
147.6800     397
147.7600     515
147.8400     348
147.9200     385
148.0000     347
148.0800     346
148.1600     391
148.2400     330
148.3200     332
148.4000     341
148.4800     411
148.5600     302
148.6400     370
148.7200     416
148.8000     324
148.8800     384
148.9600     444
149.0400     411
149.1200     341
149.2000     487
149.2800     360
149.3600     390
149.4400     382
149.5200     423
149.6000     449
149.6800     393
149.7600     327
149.8400     458
149.9200     614
150.0000     498
150.0800     440
150.1600     376
150.2400     431
150.3200     576
150.4000     519
150.4800     498
150.5600     516
150.6400     592
150.7200     652
150.8000     543
150.8800     602
150.9600     572
151.0400     637
151.1200     606
151.2000     679
151.2800     612
151.3600     773
151.4400     621
151.5200     709
151.6000     682
151.6800     735
151.7600     831
151.8400     823
151.9200     861
152.0000     990
152.0800     945
152.1600     919
152.2400    1011
152.3200     966
152.4000    1222
152.4800    1205
152.5600    1604
152.6400    1494
152.7200    1517
152.8000    1709
152.8800    1791
152.9600    1881
153.0400    1798
153.1200    1917
153.2000    2125
153.2800    2036
153.3600    2075
153.4400    2394
153.5200    2429
153.6000    2600
153.6800    2486
153.7600    2619
153.8400    2659
153.9200    2746
154.0000    2536
154.0800    2534
154.1600    2746
154.2400    2593
154.3200    2569
154.4000    2583
154.4800    2498
154.5600    2559
154.6400    2282
154.7200    2283
154.8000    2414
154.8800    2228
154.9600    2254
155.0400    2260
155.1200    1957
155.2000    2082
155.2800    1841
155.3600    1834
155.4400    1635
155.5200    1626
155.6000    1550
155.6800    1490
155.7600    1443
155.8400    1272
155.9200    1257
156.0000    1268
156.0800    1193
156.1600    1190
156.2400    1029
156.3200    1019
156.4000     945
156.4800     954
156.5600     962
156.6400     845
156.7200     808
156.8000     779
156.8800     776
156.9600     857
157.0400     697
157.1200     650
157.2000     638
157.2800     682
157.3600     677
157.4400     603
157.5200     428
157.6000     602
157.6800     567
157.7600     576
157.8400     596
157.9200     498
158.0000     502
158.0800     554
158.1600     528
158.2400     628
158.3200     538
158.4000     577
158.4800     502
158.5600     437
158.6400     400
158.7200     416
158.8000     535
158.8800     431
158.9600     471
159.0400     491
159.1200     405
159.2000     422
159.2800     409
159.3600     318
159.4400     426
159.5200     428
159.6000     391
159.6800     529
159.7600     360
159.8400     309
159.9200     372
160.0000     399
160.0800     514
160.1600     392
160.2400     401
160.3200     402
160.4000     411
160.4800     238
160.5600     454
160.6400     252
160.7200     295
160.8000     306
160.8800     337
160.9600     250
161.0400     302
161.1200     286
161.2000     232
161.2800     303
161.3600     252
161.4400     364
161.5200     331
161.6000     213
161.6800     304
161.7600     280
161.8400     339
161.9200     188
161.9800     299

File: LDA_sample_name_56789_Psi-0_20180623-125722.txt
138.0000     511
138.0800     572
138.1600     542
138.2400     667
138.3200     714
138.4000     807
138.4800     641
138.5600     745
138.6400     767
138.7200     689
138.8000     702
138.8800     787
138.9600     831
139.0400     769
139.1200     906
139.2000     920
139.2800     811
139.3600     917
139.4400     889
139.5200     935
139.6000    1061
139.6800     983
139.7600     941
139.8400     974
139.9200     936
140.0000    1019
140.0800     975
140.1600     967
140.2400     980
140.3200     921
140.4000     928
140.4800     919
140.5600     925
140.6400    1011
140.7200     939
140.8000     888
140.8800     997
140.9600     920
141.0400     807
141.1200     818
141.2000     909
141.2800     827
141.3600     839
141.4400     796
141.5200     810
141.6000     654
141.6800     686
141.7600     702
141.8400     682
141.9200     650
142.0000     673
142.0800     734
142.1600     620
142.2400     596
142.3200     608
142.4000     646
142.4800     567
142.5600     597
142.6400     627
142.7200     547
142.8000     523
142.8800     463
142.9600     436
143.0400     410
143.1200     459
143.2000     497
143.2800     464
143.3600     489
143.4400     377
143.5200     429
143.6000     401
143.6800     428
143.7600     370
143.8400     413
143.9200     347
144.0000     413
144.0800     357
144.1600     337
144.2400     393
144.3200     351
144.4000     389
144.4800     380
144.5600     254
144.6400     320
144.7200     282
144.8000     311
144.8800     302
144.9600     231
145.0400     284
145.1200     243
145.2000     270
145.2800     248
145.3600     228
145.4400     332
145.5200     246
145.6000     231
145.6800     211
145.7600     232
145.8400     279
145.9200     219
146.0000     252
146.0800     326
146.1600     283
146.2400     227
146.3200     217
146.4000     178
146.4800     208
146.5600     170
146.6400     196
146.7200     258
146.8000     231
146.8800     219
146.9600     173
147.0400     217
147.1200     243
147.2000     201
147.2800     220
147.3600     239
147.4400     274
147.5200     246
147.6000     200
147.6800     216
147.7600     273
147.8400     281
147.9200     232
148.0000     207
148.0800     139
148.1600     217
148.2400     184
148.3200     210
148.4000     211
148.4800     178
148.5600     197
148.6400     238
148.7200     176
148.8000     185
148.8800     211
148.9600     189
149.0400     182
149.1200     128
149.2000     219
149.2800     225
149.3600     156
149.4400     177
149.5200     200
149.6000     142
149.6800     208
149.7600     196
149.8400     174
149.9200     156
150.0000     235
150.0800     234
150.1600     141
150.2400     244
150.3200     252
150.4000     229
150.4800     145
150.5600     167
150.6400     161
150.7200     207
150.8000     170
150.8800     191
150.9600     171
151.0400     148
151.1200     141
151.2000     157
151.2800     172
151.3600     149
151.4400     147
151.5200     199
151.6000     164
151.6800     175
151.7600     143
151.8400     213
151.9200     151
152.0000     186
152.0800     160
152.1600     125
152.2400     151
152.3200     178
152.4000      94
152.4800     151
152.5600     116
152.6400     179
152.7200     195
152.8000     142
152.8800     200
152.9600     128
153.0400     151
153.1200     230
153.2000     133
153.2800     185
153.3600     135
153.4400     143
153.5200     145
153.6000     151
153.6800     211
153.7600     164
153.8400     124
153.9200     141
154.0000     156
154.0800     130
154.1600     143
154.2400     136
154.3200     117
154.4000     121
154.4800     187
154.5600     177
154.6400     202
154.7200     131
154.8000     154
154.8800     209
154.9600      92
155.0400     184
155.1200     187
155.2000     145
155.2800     148
155.3600     117
155.4400     118
155.5200     217
155.6000      70
155.6800     121
155.7600     152
155.8400     111
155.9200      82
156.0000     205
156.0800     155
156.1600     101
156.2400     161
156.3200     190
156.4000     140
156.4800     138
156.5600     112
156.6400     136
156.7200     139
156.8000     151
156.8800     167
156.9600     120
157.0400     157
157.1200     103
157.2000     101
157.2800     129
157.3600     117
157.4400     101
157.5200      89
157.6000     136
157.6800     151
157.7600     184
157.8400     145
157.9200     160
158.0000     148
158.0800     136
158.1600     149
158.2400     126
158.3200     151
158.4000     155
158.4800     166
158.5600      48
158.6400     134
158.7200     123
158.8000     130
158.8800     158
158.9600     109
159.0400     115
159.1200     117
159.2000     111
159.2800      82
159.3600     108
159.4400      97
159.5200      45
159.6000      99
159.6800      83
159.7600     114
159.8400      87
159.9200     146
160.0000     128
160.0800     129
160.1600      83
160.2400     101
160.3200      87
160.4000     141
160.4800     141
160.5600     165
160.6400     147
160.7200      77
160.8000     113
160.8800     141
160.9600     118
161.0400      37
161.1200     130
161.2000      98
161.2800     119
161.3600      81
161.4400     107
161.5200      79
161.6000     110
161.6800      51
161.7600     133
161.8400     119
161.9200      86
161.9800      59

File: LDA_sample_name_56789_Psi-0_20180623-125759.txt
138.0000     341
138.0800     252
138.1600     318
138.2400     290
138.3200     338
138.4000     297
138.4800     361
138.5600     321
138.6400     363
138.7200     352
138.8000     424
138.8800     365
138.9600     322
139.0400     302
139.1200     348
139.2000     329
139.2800     393
139.3600     335
139.4400     403
139.5200     412
139.6000     319
139.6800     374
139.7600     442
139.8400     396
139.9200     437
140.0000     488
140.0800     421
140.1600     435
140.2400     464
140.3200     490
140.4000     547
140.4800     602
140.5600     641
140.6400     651
140.7200     607
140.8000     669
140.8800     723
140.9600     753
141.0400     842
141.1200     773
141.2000     976
141.2800     986
141.3600     986
141.4400    1122
141.5200    1149
141.6000    1297
141.6800    1307
141.7600    1320
141.8400    1488
141.9200    1637
142.0000    1702
142.0800    2082
142.1600    2090
142.2400    2174
142.3200    2542
142.4000    2497
142.4800    2796
142.5600    2912
142.6400    2813
142.7200    3011
142.8000    2795
142.8800    2675
142.9600    2792
143.0400    2843
143.1200    2617
143.2000    2601
143.2800    2232
143.3600    2289
143.4400    2176
143.5200    2168
143.6000    1926
143.6800    1789
143.7600    1681
143.8400    1624
143.9200    1399
144.0000    1449
144.0800    1291
144.1600    1330
144.2400    1255
144.3200    1099
144.4000    1017
144.4800     929
144.5600     967
144.6400     896
144.7200     796
144.8000     792
144.8800     657
144.9600     659
145.0400     557
145.1200     502
145.2000     442
145.2800     418
145.3600     405
145.4400     428
145.5200     324
145.6000     353
145.6800     275
145.7600     235
145.8400     285
145.9200     265
146.0000     231
146.0800     271
146.1600     199
146.2400     183
146.3200     229
146.4000     193
146.4800     191
146.5600     163
146.6400     177
146.7200     177
146.8000     211
146.8800     153
146.9600     197
147.0400     145
147.1200     189
147.2000     185
147.2800     178
147.3600     156
147.4400     130
147.5200     135
147.6000     190
147.6800     182
147.7600     159
147.8400     186
147.9200     139
148.0000     134
148.0800      96
148.1600     149
148.2400     159
148.3200     154
148.4000     198
148.4800     206
148.5600     177
148.6400     168
148.7200     141
148.8000     160
148.8800     163
148.9600     146
149.0400     134
149.1200     162
149.2000     112
149.2800     114
149.3600     102
149.4400     149
149.5200     154
149.6000     162
149.6800     166
149.7600     149
149.8400     129
149.9200     137
150.0000     145
150.0800     145
150.1600     146
150.2400     128
150.3200      80
150.4000     115
150.4800     123
150.5600     161
150.6400     159
150.7200     135
150.8000     118
150.8800      94
150.9600     137
151.0400      96
151.1200     123
151.2000     122
151.2800     114
151.3600     114
151.4400     117
151.5200     143
151.6000     120
151.6800     121
151.7600     135
151.8400     105
151.9200     106
152.0000     103
152.0800      89
152.1600     131
152.2400     106
152.3200     100
152.4000     128
152.4800     128
152.5600     107
152.6400     149
152.7200     120
152.8000     132
152.8800     154
152.9600     114
153.0400     142
153.1200     101
153.2000     158
153.2800     147
153.3600      96
153.4400      90
153.5200     113
153.6000      89
153.6800     176
153.7600     119
153.8400     134
153.9200     136
154.0000     108
154.0800     119
154.1600     124
154.2400      85
154.3200      64
154.4000     101
154.4800     130
154.5600     120
154.6400     130
154.7200      79
154.8000     144
154.8800     118
154.9600     143
155.0400     111
155.1200     140
155.2000     105
155.2800     114
155.3600      71
155.4400      92
155.5200      98
155.6000     124
155.6800     106
155.7600     119
155.8400      75
155.9200      84
156.0000     115
156.0800     105
156.1600      82
156.2400     104
156.3200      86
156.4000     120
156.4800      81
156.5600     110
156.6400     105
156.7200      99
156.8000      39
156.8800     114
156.9600     122
157.0400      66
157.1200      87
157.2000      73
157.2800     111
157.3600     109
157.4400     142
157.5200     130
157.6000     124
157.6800     119
157.7600     103
157.8400      77
157.9200      97
158.0000     106
158.0800     127
158.1600     113
158.2400     110
158.3200     116
158.4000      70
158.4800      92
158.5600     132
158.6400     105
158.7200     105
158.8000      77
158.8800      71
158.9600      66
159.0400     102
159.1200      85
159.2000      86
159.2800      99
159.3600      89
159.4400      89
159.5200      92
159.6000      85
159.6800      98
159.7600     120
159.8400      63
159.9200      66
160.0000      99
160.0800     136
160.1600      47
160.2400      90
160.3200      84
160.4000     158
160.4800     102
160.5600     109
160.6400      71
160.7200     109
160.8000      59
160.8800     115
160.9600      99
161.0400     154
161.1200      53
161.2000      73
161.2800     106
161.3600      60
161.4400     129
161.5200      79
161.6000      96
161.6800     101
161.7600      93
161.8400      43
161.9200      39
161.9800      67

File: LDA_sample_name_56789_Psi-15_20180603-122805.txt
128.0000     255
128.0800     278
128.1600     223
128.2400     241
128.3200     254
128.4000     233
128.4800     285
128.5600     260
128.6400     243
128.7200     241
128.8000     273
128.8800     257
128.9600     233
129.0400     278
129.1200     256
129.2000     228
129.2800     236
129.3600     248
129.4400     250
129.5200     285
129.6000     265
129.6800     222
129.7600     296
129.8400     280
129.9200     250
130.0000     240
130.0800     270
130.1600     271
130.2400     251
130.3200     262
130.4000     277
130.4800     270
130.5600     283
130.6400     274
130.7200     251
130.8000     255
130.8800     258
130.9600     271
131.0400     266
131.1200     252
131.2000     280
131.2800     261
131.3600     256
131.4400     244
131.5200     240
131.6000     291
131.6800     253
131.7600     257
131.8400     259
131.9200     258
132.0000     250
132.0800     237
132.1600     270
132.2400     261
132.3200     267
132.4000     259
132.4800     284
132.5600     238
132.6400     265
132.7200     281
132.8000     274
132.8800     248
132.9600     297
133.0400     264
133.1200     255
133.2000     286
133.2800     260
133.3600     259
133.4400     262
133.5200     261
133.6000     240
133.6800     291
133.7600     245
133.8400     273
133.9200     258
134.0000     301
134.0800     272
134.1600     288
134.2400     261
134.3200     281
134.4000     286
134.4800     250
134.5600     240
134.6400     260
134.7200     278
134.8000     244
134.8800     230
134.9600     260
135.0400     286
135.1200     263
135.2000     262
135.2800     296
135.3600     267
135.4400     237
135.5200     268
135.6000     278
135.6800     282
135.7600     272
135.8400     236
135.9200     278
136.0000     266
136.0800     259
136.1600     279
136.2400     259
136.3200     245
136.4000     280
136.4800     249
136.5600     243
136.6400     261
136.7200     262
136.8000     248
136.8800     245
136.9600     286
137.0400     274
137.1200     286
137.2000     278
137.2800     272
137.3600     263
137.4400     254
137.5200     266
137.6000     282
137.6800     252
137.7600     283
137.8400     281
137.9200     290
138.0000     304
138.0800     276
138.1600     262
138.2400     270
138.3200     282
138.4000     275
138.4800     299
138.5600     272
138.6400     277
138.7200     286
138.8000     269
138.8800     269
138.9600     257
139.0400     270
139.1200     256
139.2000     282
139.2800     261
139.3600     257
139.4400     249
139.5200     260
139.6000     291
139.6800     288
139.7600     282
139.8400     313
139.9200     271
140.0000     281
140.0800     285
140.1600     255
140.2400     264
140.3200     297
140.4000     279
140.4800     262
140.5600     267
140.6400     321
140.7200     277
140.8000     246
140.8800     262
140.9600     313
141.0400     266
141.1200     269
141.2000     265
141.2800     295
141.3600     304
141.4400     289
141.5200     270
141.6000     285
141.6800     254
141.7600     283
141.8400     262
141.9200     289
142.0000     294
142.0800     249
142.1600     274
142.2400     278
142.3200     299
142.4000     276
142.4800     299
142.5600     250
142.6400     268
142.7200     258
142.8000     271
142.8800     262
142.9600     251
143.0400     269
143.1200     259
143.2000     269
143.2800     268
143.3600     280
143.4400     284
143.5200     281
143.6000     281
143.6800     290
143.7600     269
143.8400     301
143.9200     287
144.0000     273
144.0800     272
144.1600     287
144.2400     251
144.3200     288
144.4000     287
144.4800     313
144.5600     256
144.6400     275
144.7200     271
144.8000     280
144.8800     256
144.9600     291
145.0400     274
145.1200     314
145.2000     251
145.2800     284
145.3600     288
145.4400     264
145.5200     270
145.6000     277
145.6800     282
145.7600     241
145.8400     259
145.9200     292
146.0000     263
146.0800     244
146.1600     256
146.2400     280
146.3200     241
146.4000     286
146.4800     261
146.5600     282
146.6400     261
146.7200     300
146.8000     281
146.8800     317
146.9600     282
147.0400     256
147.1200     295
147.2000     289
147.2800     273
147.3600     293
147.4400     284
147.5200     272
147.6000     249
147.6800     285
147.7600     289
147.8400     295
147.9200     271
148.0000     258
148.0800     308
148.1600     291
148.2400     276
148.3200     260
148.4000     247
148.4800     324
148.5600     295
148.6400     277
148.7200     287
148.8000     269
148.8800     260
148.9600     277
149.0400     329
149.1200     261
149.2000     270
149.2800     296
149.3600     302
149.4400     250
149.5200     272
149.6000     309
149.6800     307
149.7600     250
149.8400     270
149.9200     281
150.0000     312
150.0800     304
150.1600     288
150.2400     303
150.3200     285
150.4000     296
150.4800     251
150.5600     288
150.6400     294
150.7200     285
150.8000     291
150.8800     262
150.9600     311
151.0400     305
151.1200     295
151.2000     289
151.2800     269
151.3600     283
151.4400     287
151.5200     281
151.6000     278
151.6800     280
151.7600     275
151.8400     265
151.9200     330
151.9600     272