Folder: xrd/XRD_Tool/XRD_Tool/bin/Debug (part 20)

File: SDD_sample_name_01234_Psi-0_20180602-131241.txt
 145.0000       45
 145.0400       38
 145.0800       36
 145.1200       37
 145.1600       43
 145.2000       30
 145.2400       21
 145.2800       32
 145.3200       38
 145.3600       36
 145.4000       40
 145.4400       33
 145.4800       38
 145.5200       37
 145.5600       28
 145.6000       33
 145.6400       48
 145.6800       28
 145.7200       40
 145.7600       43
 145.8000       43
 145.8400       35
 145.8800       46
 145.9200       36
 145.9600       39
 146.0000       38
 146.0400       34
 146.0800       32
 146.1200       47
 146.1600       37
 146.2000       45
 146.2400       26
 146.2800       42
 146.3200       35
 146.3600       38
 146.4000       30
 146.4400       35
 146.4800       31
 146.5200       38
 146.5600       39
 146.6000       46
 146.6400       49
 146.6800       49
 146.7200       36
 146.7600       38
 146.8000       40
 146.8400       45
 146.8800       38
 146.9200       53
 146.9600       46
 147.0000       39
 147.0400       39
 147.0800       51
 147.1200       38
 147.1600       42
 147.2000       44
 147.2400       31
 147.2800       44
 147.3200       38
 147.3600       45
 147.4000       59
 147.4400       46
 147.4800       41
 147.5200       54
 147.5600       37
 147.6000       34
 147.6400       35
 147.6800       48
 147.7200       48
 147.7600       36
 147.8000       39
 147.8400       38
 147.8800       43
 147.9200       41
 147.9600       42
 148.0000       44
 148.0400       42
 148.0800       46
 148.1200       37
 148.1600       37
 148.2000       41
 148.2400       53
 148.2800       48
 148.3200       43
 148.3600       55
 148.4000       33
 148.4400       48
 148.4800       44
 148.5200       51
 148.5600       48
 148.6000       43
 148.6400       46
 148.6800       34
 148.7200       48
 148.7600       45
 148.8000       45
 148.8400       39
 148.8800       52
 148.9200       49
 148.9600       45
 149.0000       45
 149.0400       45
 149.0800       53
 149.1200       54
 149.1600       33
 149.2000       50
 149.2400       57
 149.2800       37
 149.3200       50
 149.3600       36
 149.4000       55
 149.4400       50
 149.4800       57
 149.5200       48
 149.5600       55
 149.6000       42
 149.6400       53
 149.6800       35
 149.7200       54
 149.7600       55
 149.8000       59
 149.8400       62
 149.8800       51
 149.9200       58
 149.9600       50
 150.0000       60
 150.0400       55
 150.0800       63
 150.1200       62
 150.1600       44
 150.2000       51
 150.2400       59
 150.2800       45
 150.3200       56
 150.3600       55
 150.4000       53
 150.4400       64
 150.4800       65
 150.5200       62
 150.5600       55
 150.6000       71
 150.6400       55
 150.6800       72
 150.7200       53
 150.7600       63
 150.8000       68
 150.8400       53
 150.8800       84
 150.9200       67
 150.9600       80
 151.0000       67
 151.0400       71
 151.0800       86
 151.1200       83
 151.1600       61
 151.2000       73
 151.2400       70
 151.2800       83
 151.3200       85
 151.3600       88
 151.4000       75
 151.4400       73
 151.4800       94
 151.5200       84
 151.5600       89
 151.6000       87
 151.6400       99
 151.6800       83
 151.7200      108
 151.7600       95
 151.8000       98
 151.8400       96
 151.8800      104
 151.9200       99
 151.9600       85
 152.0000       93
 152.0400      112
 152.0800      124
 152.1200      130
 152.1600      124
 152.2000      135
 152.2400      126
 152.2800      141
 152.3200      126
 152.3600      133
 152.4000      154
 152.4400      145
 152.4800      141
 152.5200      139
 152.5600      126
 152.6000      175
 152.6400      176
 152.6800      151
 152.7200      169
 152.7600      155
 152.8000      181
 152.8400      195
 152.8800      187
 152.9200      222
 152.9600      191
 153.0000      214
 153.0400      226
 153.0800      215
 153.1200      213
 153.1600      237
 153.2000      233
 153.2400      246
 153.2800      246
 153.3200      242
 153.3600      275
 153.4000      269
 153.4400      300
 153.4800      303
 153.5200      309
 153.5600      329
 153.6000      319
 153.6400      331
 153.6800      357
 153.7200      348
 153.7600      364
 153.8000      352
 153.8400      383
 153.8800      361
 153.9200      387
 153.9600      399
 154.0000      431
 154.0400      400
 154.0800      410
 154.1200      413
 154.1600      452
 154.2000      465
 154.2400      461
 154.2800      458
 154.3200      428
 154.3600      454
 154.4000      475
 154.4400      474
 154.4800      475
 154.5200      483
 154.5600      469
 154.6000      480
 154.6400      481
 154.6800      459
 154.7200      478
 154.7600      485
 154.8000      486
 154.8400      468
 154.8800      482
 154.9200      451
 154.9600      491
 155.0000      437

File: SDD_sample_name_01234_Psi-0_20180602-131358.txt
 145.0000       47
 145.0400       39
 145.0800       29
 145.1200       29
 145.1600       42
 145.2000       48
 145.2400       36
 145.2800       41
 145.3200       42
 145.3600       43
 145.4000       42
 145.4400       41
 145.4800       48
 145.5200       40
 145.5600       42
 145.6000       45
 145.6400       39
 145.6800       29
 145.7200       37
 145.7600       39
 145.8000       44
 145.8400       46
 145.8800       28
 145.9200       36
 145.9600       42
 146.0000       35
 146.0400       34
 146.0800       33
 146.1200       41
 146.1600       49
 146.2000       42
 146.2400       43
 146.2800       47
 146.3200       38
 146.3600       44
 146.4000       36
 146.4400       33
 146.4800       28
 146.5200       45
 146.5600       50
 146.6000       32
 146.6400       38
 146.6800       35
 146.7200       33
 146.7600       44
 146.8000       25
 146.8400       26
 146.8800       43
 146.9200       44
 146.9600       43
 147.0000       35
 147.0400       33
 147.0800       39
 147.1200       56
 147.1600       27
 147.2000       43
 147.2400       48
 147.2800       28
 147.3200       35
 147.3600       44
 147.4000       33
 147.4400       26
 147.4800       32
 147.5200       45
 147.5600       33
 147.6000       40
 147.6400       33
 147.6800       29
 147.7200       45
 147.7600       44
 147.8000       44
 147.8400       52
 147.8800       29
 147.9200       44
 147.9600       31
 148.0000       45
 148.0400       38
 148.0800       41
 148.1200       46
 148.1600       50
 148.2000       49
 148.2400       38
 148.2800       36
 148.3200       42
 148.3600       37
 148.4000       39
 148.4400       40
 148.4800       48
 148.5200       45
 148.5600       50
 148.6000       45
 148.6400       50
 148.6800       42
 148.7200       45
 148.7600       56
 148.8000       44
 148.8400       57
 148.8800       38
 148.9200       41
 148.9600       43
 149.0000       45
 149.0400       52
 149.0800       46
 149.1200       64
 149.1600       52
 149.2000       37
 149.2400       57
 149.2800       45
 149.3200       46
 149.3600       44
 149.4000       50
 149.4400       63
 149.4800       46
 149.5200       45
 149.5600       42
 149.6000       61
 149.6400       62
 149.6800       54
 149.7200       50
 149.7600       52
 149.8000       53
 149.8400       46
 149.8800       62
 149.9200       43
 149.9600       52
 150.0000       47
 150.0400       48
 150.0800       46
 150.1200       58
 150.1600       71
 150.2000       46
 150.2400       58
 150.2800       73
 150.3200       62
 150.3600       53
 150.4000       67
 150.4400       56
 150.4800       57
 150.5200       69
 150.5600       54
 150.6000       59
 150.6400       70
 150.6800       66
 150.7200       68
 150.7600       69
 150.8000       70
 150.8400       54
 150.8800       80
 150.9200       74
 150.9600       59
 151.0000       71
 151.0400       72
 151.0800       71
 151.1200       69
 151.1600       58
 151.2000       57
 151.2400       76
 151.2800       85
 151.3200       67
 151.3600       83
 151.4000       95
 151.4400       75
 151.4800       80
 151.5200       74
 151.5600       88
 151.6000       76
 151.6400      101
 151.6800      103
 151.7200       91
 151.7600       88
 151.8000      101
 151.8400       87
 151.8800      121
 151.9200      121
 151.9600      117
 152.0000      111
 152.0400      103
 152.0800      109
 152.1200      130
 152.1600      110
 152.2000      118
 152.2400      114
 152.2800      127
 152.3200      125
 152.3600      139
 152.4000      117
 152.4400      158
 152.4800      158
 152.5200      153
 152.5600      155
 152.6000      162
 152.6400      182
 152.6800      172
 152.7200      155
 152.7600      168
 152.8000      201
 152.8400      190
 152.8800      181
 152.9200      191
 152.9600      188
 153.0000      198
 153.0400      192
 153.0800      214
 153.1200      224
 153.1600      231
 153.2000      254
 153.2400      226
 153.2800      241
 153.3200      256
 153.3600      273
 153.4000      281
 153.4400      280
 153.4800      300
 153.5200      287
 153.5600      345
 153.6000      341
 153.6400      349
 153.6800      355
 153.7200      367
 153.7600      331
 153.8000      344
 153.8400      371
 153.8800      382
 153.9200      381
 153.9600      414
 154.0000      438
 154.0400      396
 154.0800      424
 154.1200      412
 154.1600      440
 154.2000      448
 154.2400      451
 154.2800      471
 154.3200      438
 154.3600      447
 154.4000      461
 154.4400      438
 154.4800      500
 154.5200      462
 154.5600      523
 154.6000      442
 154.6400      486
 154.6800      482
 154.7200      456
 154.7600      486
 154.8000      464
 154.8400      453
 154.8800      437
 154.9200      467
 154.9600      479
 155.0000      462

File: SDD_sample_name_01234_Psi-0_20180602-151429.txt
 145.0000       39
 145.0400       32
 145.0800       37
 145.1200       37
 145.1600       36
 145.2000       32
 145.2400       38
 145.2800       30
 145.3200       43
 145.3600       46
 145.4000       29
 145.4400       44
 145.4800       40
 145.5200       45
 145.5600       40
 145.6000       40
 145.6400       44
 145.6800       26
 145.7200       50
 145.7600       47
 145.8000       36
 145.8400       33
 145.8800       48
 145.9200       26
 145.9600       40
 146.0000       38
 146.0400       49
 146.0800       41
 146.1200       45
 146.1600       32
 146.2000       34
 146.2400       34
 146.2800       46
 146.3200       38
 146.3600       39
 146.4000       31
 146.4400       42
 146.4800       35
 146.5200       41
 146.5600       38
 146.6000       40
 146.6400       33
 146.6800       42
 146.7200       58
 146.7600       32
 146.8000       44
 146.8400       35
 146.8800       47
 146.9200       27
 146.9600       34
 147.0000       47
 147.0400       38
 147.0800       41
 147.1200       42
 147.1600       48
 147.2000       29
 147.2400       43
 147.2800       40
 147.3200       40
 147.3600       39
 147.4000       41
 147.4400       38
 147.4800       40
 147.5200       42
 147.5600       39
 147.6000       46
 147.6400       43
 147.6800       30
 147.7200       47
 147.7600       41
 147.8000       43
 147.8400       41
 147.8800       40
 147.9200       37
 147.9600       43
 148.0000       35
 148.0400       41
 148.0800       50
 148.1200       36
 148.1600       43
 148.2000       47
 148.2400       52
 148.2800       37
 148.3200       52
 148.3600       49
 148.4000       43
 148.4400       47
 148.4800       36
 148.5200       43
 148.5600       56
 148.6000       43
 148.6400       49
 148.6800       37
 148.7200       49
 148.7600       39
 148.8000       36
 148.8400       48
 148.8800       52
 148.9200       45
 148.9600       47
 149.0000       45
 149.0400       47
 149.0800       44
 149.1200       51
 149.1600       42
 149.2000       43
 149.2400       63
 149.2800       63
 149.3200       47
 149.3600       41
 149.4000       46
 149.4400       56
 149.4800       58
 149.5200       54
 149.5600       53
 149.6000       36
 149.6400       54
 149.6800       52
 149.7200       58
 149.7600       49
 149.8000       44
 149.8400       52
 149.8800       50
 149.9200       53
 149.9600       59
 150.0000       48
 150.0400       47
 150.0800       55
 150.1200       52
 150.1600       55
 150.2000       52
 150.2400       47
 150.2800       56
 150.3200       66
 150.3600       60
 150.4000       73
 150.4400       60
 150.4800       60
 150.5200       59
 150.5600       73
 150.6000       59
 150.6400       58
 150.6800       72
 150.7200       49
 150.7600       70
 150.8000       71
 150.8400       77
 150.8800       76
 150.9200       65
 150.9600       69
 151.0000       65
 151.0400       57
 151.0800       73
 151.1200       66
 151.1600       75
 151.2000       70
 151.2400       80
 151.2800       71
 151.3200       88
 151.3600       74
 151.4000       65
 151.4400       65
 151.4800       79
 151.5200       79
 151.5600      100
 151.6000       96
 151.6400       95
 151.6800       97
 151.7200      112
 151.7600       98
 151.8000       91
 151.8400       88
 151.8800      110
 151.9200      104
 151.9600      117
 152.0000       92
 152.0400      122
 152.0800      118
 152.1200       94
 152.1600      107
 152.2000      136
 152.2400      121
 152.2800      126
 152.3200      142
 152.3600      139
 152.4000      139
 152.4400      160
 152.4800      139
 152.5200      162
 152.5600      169
 152.6000      163
 152.6400      160
 152.6800      162
 152.7200      167
 152.7600      179
 152.8000      189
 152.8400      163
 152.8800      207
 152.9200      196
 152.9600      211
 153.0000      215
 153.0400      208
 153.0800      221
 153.1200      230
 153.1600      238
 153.2000      258
 153.2400      251
 153.2800      257
 153.3200      276
 153.3600      255
 153.4000      266
 153.4400      301
 153.4800      306
 153.5200      309
 153.5600      293
 153.6000      315
 153.6400      316
 153.6800      306
 153.7200      338
 153.7600      358
 153.8000      370
 153.8400      365
 153.8800      360
 153.9200      364
 153.9600      408
 154.0000      422
 154.0400      434
 154.0800      433
 154.1200      429
 154.1600      445
 154.2000      434
 154.2400      460
 154.2800      477
 154.3200      457
 154.3600      457
 154.4000      440
 154.4400      461
 154.4800      465
 154.5200      481
 154.5600      500
 154.6000      452
 154.6400      506
 154.6800      485
 154.7200      522
 154.7600      481
 154.8000      486
 154.8400      462
 154.8800      463
 154.9200      495
 154.9600      435
 155.0000      451

File: SDD_sample_name_01234_Psi-0_20180602-152417.txt
 145.0000       43
 145.0400       37
 145.0800       34
 145.1200       43
 145.1600       41
 145.2000       37
 145.2400       39
 145.2800       41
 145.3200       45
 145.3600       32
 145.4000       36
 145.4400       40
 145.4800       36
 145.5200       43
 145.5600       36
 145.6000       37
 145.6400       37
 145.6800       29
 145.7200       42
 145.7600       43
 145.8000       39
 145.8400       34
 145.8800       37
 145.9200       37
 145.9600       47
 146.0000       32
 146.0400       37
 146.0800       33
 146.1200       29
 146.1600       40
 146.2000       37
 146.2400       38
 146.2800       51
 146.3200       37
 146.3600       44
 146.4000       41
 146.4400       36
 146.4800       29
 146.5200       35
 146.5600       29
 146.6000       37
 146.6400       38
 146.6800       40
 146.7200       34
 146.7600       53
 146.8000       49
 146.8400       28
 146.8800       37
 146.9200       37
 146.9600       47
 147.0000       46
 147.0400       49
 147.0800       54
 147.1200       53
 147.1600       54
 147.2000       43
 147.2400       37
 147.2800       50
 147.3200       39
 147.3600       42
 147.4000       39
 147.4400       34
 147.4800       40
 147.5200       44
 147.5600       34
 147.6000       47
 147.6400       54
 147.6800       38
 147.7200       42
 147.7600       50
 147.8000       44
 147.8400       46
 147.8800       27
 147.9200       41
 147.9600       37
 148.0000       33
 148.0400       39
 148.0800       44
 148.1200       41
 148.1600       49
 148.2000       32
 148.2400       50
 148.2800       38
 148.3200       45
 148.3600       41
 148.4000       41
 148.4400       56
 148.4800       39
 148.5200       46
 148.5600       33
 148.6000       54
 148.6400       38
 148.6800       49
 148.7200       55
 148.7600       48
 148.8000       53
 148.8400       50
 148.8800       48
 148.9200       44
 148.9600       42
 149.0000       57
 149.0400       48
 149.0800       53
 149.1200       41
 149.1600       55
 149.2000       36
 149.2400       49
 149.2800       38
 149.3200       57
 149.3600       52
 149.4000       49
 149.4400       53
 149.4800       51
 149.5200       35
 149.5600       54
 149.6000       53
 149.6400       41
 149.6800       51
 149.7200       40
 149.7600       57
 149.8000       44
 149.8400       56
 149.8800       56
 149.9200       47
 149.9600       60
 150.0000       58
 150.0400       67
 150.0800       49
 150.1200       61
 150.1600       51
 150.2000       72
 150.2400       57
 150.2800       60
 150.3200       55
 150.3600       51
 150.4000       60
 150.4400       64
 150.4800       51
 150.5200       65
 150.5600       62
 150.6000       62
 150.6400       59
 150.6800       57
 150.7200       72
 150.7600       71
 150.8000       59
 150.8400       63
 150.8800       74
 150.9200       79
 150.9600       67
 151.0000       66
 151.0400       64
 151.0800       77
 151.1200       73
 151.1600       75
 151.2000      102
 151.2400       74
 151.2800       82
 151.3200       71
 151.3600       90
 151.4000       98
 151.4400       80
 151.4800       88
 151.5200       91
 151.5600       92
 151.6000       87
 151.6400       87
 151.6800       93
 151.7200       94
 151.7600      116
 151.8000      104
 151.8400      113
 151.8800       94
 151.9200      107
 151.9600       94
 152.0000       97
 152.0400      116
 152.0800      102
 152.1200      114
 152.1600      115
 152.2000      132
 152.2400      134
 152.2800      121
 152.3200      154
 152.3600      133
 152.4000      145
 152.4400      146
 152.4800      157
 152.5200      140
 152.5600      137
 152.6000      158
 152.6400      149
 152.6800      164
 152.7200      184
 152.7600      174
 152.8000      195
 152.8400      176
 152.8800      178
 152.9200      191
 152.9600      224
 153.0000      233
 153.0400      185
 153.0800      207
 153.1200      242
 153.1600      220
 153.2000      247
 153.2400      247
 153.2800      245
 153.3200      283
 153.3600      255
 153.4000      311
 153.4400      296
 153.4800      288
 153.5200      314
 153.5600      326
 153.6000      309
 153.6400      338
 153.6800      331
 153.7200      370
 153.7600      347
 153.8000      346
 153.8400      387
 153.8800      414
 153.9200      356
 153.9600      410
 154.0000      356
 154.0400      418
 154.0800      392
 154.1200      455
 154.1600      458
 154.2000      418
 154.2400      451
 154.2800      477
 154.3200      451
 154.3600      451
 154.4000      501
 154.4400      473
 154.4800      477
 154.5200      497
 154.5600      479
 154.6000      463
 154.6400      485
 154.6800      474
 154.7200      490
 154.7600      506
 154.8000      509
 154.8400      463
 154.8800      529
 154.9200      480
 154.9600      482
 155.0000      472

File: SDD_sample_name_01234_Psi-0_20180602-171537.txt
 150.0000      133
 150.0200      123
 150.0400      122
 150.0600      152
 150.0800      124
 150.1000      115
 150.1200      119
 150.1400      133
 150.1600      129
 150.1800      140
 150.2000      131
 150.2200      117
 150.2400      132
 150.2600      137
 150.2800      131
 150.3000      169
 150.3200      137
 150.3400      129
 150.3600      155
 150.3800      148
 150.4000      140
 150.4200      148
 150.4400      154
 150.4600      153
 150.4800      129
 150.5000      142
 150.5200      127
 150.5400      149
 150.5600      142
 150.5800      149
 150.6000      126
 150.6200      166
 150.6400      167
 150.6600      173
 150.6800      158
 150.7000      149
 150.7200      157
 150.7400      156
 150.7600      152
 150.7800      143
 150.8000      165
 150.8200      161
 150.8400      154
 150.8600      150
 150.8800      170
 150.9000      179
 150.9200      186
 150.9400      185
 150.9600      160
 150.9800      157
 151.0000      167
 151.0200      165
 151.0400      184
 151.0600      172
 151.0800      183
 151.1000      180
 151.1200      176
 151.1400      157
 151.1600      159
 151.1800      199
 151.2000      180
 151.2200      186
 151.2400      196
 151.2600      200
 151.2800      187
 151.3000      187
 151.3200      177
 151.3400      183
 151.3600      181
 151.3800      217
 151.4000      181
 151.4200      205
 151.4400      182
 151.4600      211
 151.4800      200
 151.5000      211
 151.5200      206
 151.5400      189
 151.5600      246
 151.5800      228
 151.6000      206
 151.6200      181
 151.6400      208
 151.6600      233
 151.6800      228
 151.7000      224
 151.7200      227
 151.7400      215
 151.7600      208
 151.7800      227
 151.8000      216
 151.8200      230
 151.8400      254
 151.8600      247
 151.8800      236
 151.9000      217
 151.9200      257
 151.9400      259
 151.9600      249
 151.9800      237
 152.0000      231
 152.0200      240
 152.0400      224
 152.0600      256
 152.0800      249
 152.1000      264
 152.1200      252
 152.1400      278
 152.1600      277
 152.1800      286
 152.2000      255
 152.2200      272
 152.2400      304
 152.2600      255
 152.2800      274
 152.3000      285
 152.3200      289
 152.3400      283
 152.3600      248
 152.3800      277
 152.4000      307
 152.4200      305
 152.4400      272
 152.4600      297
 152.4800      304
 152.5000      287
 152.5200      318
 152.5400      312
 152.5600      284
 152.5800      329
 152.6000      327
 152.6200      320
 152.6400      339
 152.6600      323
 152.6800      364
 152.7000      335
 152.7200      312
 152.7400      361
 152.7600      338
 152.7800      325
 152.8000      314
 152.8200      326
 152.8400      323
 152.8600      341
 152.8800      365
 152.9000      330
 152.9200      330
 152.9400      348
 152.9600      366
 152.9800      369
 153.0000      370
 153.0200      383
 153.0400      347
 153.0600      338
 153.0800      380
 153.1000      363
 153.1200      339
 153.1400      364
 153.1600      343
 153.1800      378
 153.2000      351
 153.2200      393
 153.2400      346
 153.2600      378
 153.2800      411
 153.3000      377
 153.3200      370
 153.3400      399
 153.3600      414
 153.3800      411
 153.4000      397
 153.4200      360
 153.4400      461
 153.4600      427
 153.4800      439
 153.5000      376
 153.5200      404
 153.5400      427
 153.5600      406
 153.5800      404
 153.6000      398
 153.6200      427
 153.6400      416
 153.6600      421
 153.6800      447
 153.7000      402
 153.7200      436
 153.7400      411
 153.7600      428
 153.7800      431
 153.8000      434
 153.8200      417
 153.8400      527
 153.8600      467
 153.8800      439
 153.9000      475
 153.9200      474
 153.9400      427
 153.9600      448
 153.9800      477
 154.0000      474
 154.0200      490
 154.0400      472
 154.0600      421
 154.0800      471
 154.1000      467
 154.1200      457
 154.1400      442
 154.1600      459
 154.1800      471
 154.2000      460
 154.2200      466
 154.2400      434
 154.2600      465
 154.2800      470
 154.3000      452
 154.3200      497
 154.3400      454
 154.3600      512
 154.3800      496
 154.4000      506
 154.4200      468
 154.4400      437
 154.4600      461
 154.4800      424
 154.5000      513
 154.5200      447
 154.5400      483
 154.5600      489
 154.5800      475
 154.6000      493
 154.6200      451
 154.6400      478
 154.6600      496
 154.6800      472
 154.7000      493
 154.7200      453
 154.7400      481
 154.7600      467
 154.7800      479
 154.8000      461
 154.8200      458
 154.8400      492
 154.8600      441
 154.8800      470
 154.9000      508
 154.9200      462
 154.9400      510
 154.9600      509
 154.9800      449
 155.0000      498