Folder: xrd/XRD_Tool/XRD_Tool/bin/Debug (part 25)

File: SDD_sample_name_01234_Psi-15_20180602-173846.txt
 150.0000      111
 150.0200       97
 150.0400      106
 150.0600      141
 150.0800      117
 150.1000      120
 150.1200      124
 150.1400      121
 150.1600      128
 150.1800      114
 150.2000      131
 150.2200      128
 150.2400      109
 150.2600      122
 150.2800      128
 150.3000      125
 150.3200      122
 150.3400      130
 150.3600      129
 150.3800      141
 150.4000      127
 150.4200      124
 150.4400      132
 150.4600      137
 150.4800      136
 150.5000      128
 150.5200      140
 150.5400      176
 150.5600      145
 150.5800      147
 150.6000      149
 150.6200      142
 150.6400      146
 150.6600      127
 150.6800      145
 150.7000      150
 150.7200      141
 150.7400      150
 150.7600      153
 150.7800      163
 150.8000      150
 150.8200      137
 150.8400      149
 150.8600      169
 150.8800      158
 150.9000      167
 150.9200      149
 150.9400      158
 150.9600      121
 150.9800      163
 151.0000      164
 151.0200      171
 151.0400      144
 151.0600      147
 151.0800      154
 151.1000      158
 151.1200      166
 151.1400      176
 151.1600      171
 151.1800      170
 151.2000      177
 151.2200      180
 151.2400      199
 151.2600      188
 151.2800      190
 151.3000      185
 151.3200      170
 151.3400      182
 151.3600      204
 151.3800      184
 151.4000      171
 151.4200      166
 151.4400      176
 151.4600      189
 151.4800      197
 151.5000      180
 151.5200      178
 151.5400      218
 151.5600      200
 151.5800      199
 151.6000      216
 151.6200      171
 151.6400      196
 151.6600      203
 151.6800      219
 151.7000      221
 151.7200      227
 151.7400      233
 151.7600      211
 151.7800      223
 151.8000      229
 151.8200      221
 151.8400      224
 151.8600      238
 151.8800      209
 151.9000      217
 151.9200      231
 151.9400      216
 151.9600      244
 151.9800      239
 152.0000      210
 152.0200      227
 152.0400      239
 152.0600      218
 152.0800      265
 152.1000      207
 152.1200      251
 152.1400      230
 152.1600      235
 152.1800      247
 152.2000      248
 152.2200      245
 152.2400      257
 152.2600      259
 152.2800      244
 152.3000      267
 152.3200      257
 152.3400      268
 152.3600      231
 152.3800      282
 152.4000      279
 152.4200      238
 152.4400      284
 152.4600      260
 152.4800      306
 152.5000      278
 152.5200      281
 152.5400      258
 152.5600      282
 152.5800      287
 152.6000      307
 152.6200      312
 152.6400      294
 152.6600      320
 152.6800      309
 152.7000      279
 152.7200      306
 152.7400      299
 152.7600      287
 152.7800      331
 152.8000      306
 152.8200      312
 152.8400      316
 152.8600      307
 152.8800      302
 152.9000      299
 152.9200      287
 152.9400      266
 152.9600      313
 152.9800      353
 153.0000      342
 153.0200      318
 153.0400      302
 153.0600      325
 153.0800      373
 153.1000      350
 153.1200      372
 153.1400      334
 153.1600      339
 153.1800      356
 153.2000      347
 153.2200      351
 153.2400      363
 153.2600      315
 153.2800      337
 153.3000      335
 153.3200      359
 153.3400      381
 153.3600      328
 153.3800      355
 153.4000      363
 153.4200      406
 153.4400      373
 153.4600      370
 153.4800      380
 153.5000      364
 153.5200      389
 153.5400      399
 153.5600      414
 153.5800      393
 153.6000      387
 153.6200      401
 153.6400      389
 153.6600      440
 153.6800      391
 153.7000      415
 153.7200      405
 153.7400      436
 153.7600      439
 153.7800      399
 153.8000      382
 153.8200      405
 153.8400      434
 153.8600      431
 153.8800      397
 153.9000      396
 153.9200      410
 153.9400      393
 153.9600      410
 153.9800      408
 154.0000      413
 154.0200      431
 154.0400      404
 154.0600      436
 154.0800      445
 154.1000      466
 154.1200      437
 154.1400      421
 154.1600      435
 154.1800      418
 154.2000      394
 154.2200      470
 154.2400      456
 154.2600      475
 154.2800      485
 154.3000      399
 154.3200      465
 154.3400      430
 154.3600      436
 154.3800      439
 154.4000      449
 154.4200      470
 154.4400      460
 154.4600      445
 154.4800      453
 154.5000      486
 154.5200      429
 154.5400      442
 154.5600      483
 154.5800      468
 154.6000      451
 154.6200      455
 154.6400      476
 154.6600      496
 154.6800      442
 154.7000      434
 154.7200      396
 154.7400      451
 154.7600      496
 154.7800      419
 154.8000      503
 154.8200      471
 154.8400      456
 154.8600      459
 154.8800      481
 154.9000      499
 154.9200      417
 154.9400      469
 154.9600      468
 154.9800      494
 155.0000      424

File: SDD_sample_name_01234_Psi-15_20180602-174216.txt
 150.0000      109
 150.0200      128
 150.0400      110
 150.0600      112
 150.0800      118
 150.1000      117
 150.1200      135
 150.1400      105
 150.1600      124
 150.1800      137
 150.2000      119
 150.2200      155
 150.2400      124
 150.2600      102
 150.2800      138
 150.3000      127
 150.3200      130
 150.3400      110
 150.3600      136
 150.3800       98
 150.4000      127
 150.4200      130
 150.4400      127
 150.4600      121
 150.4800      157
 150.5000      129
 150.5200      135
 150.5400      153
 150.5600      127
 150.5800      150
 150.6000      120
 150.6200      158
 150.6400      151
 150.6600      133
 150.6800      152
 150.7000      145
 150.7200      145
 150.7400      165
 150.7600      140
 150.7800      127
 150.8000      143
 150.8200      157
 150.8400      163
 150.8600      173
 150.8800      144
 150.9000      166
 150.9200      153
 150.9400      179
 150.9600      156
 150.9800      156
 151.0000      163
 151.0200      161
 151.0400      151
 151.0600      160
 151.0800      154
 151.1000      161
 151.1200      180
 151.1400      164
 151.1600      186
 151.1800      169
 151.2000      170
 151.2200      161
 151.2400      181
 151.2600      174
 151.2800      191
 151.3000      162
 151.3200      173
 151.3400      202
 151.3600      174
 151.3800      175
 151.4000      175
 151.4200      188
 151.4400      195
 151.4600      242
 151.4800      204
 151.5000      209
 151.5200      183
 151.5400      164
 151.5600      204
 151.5800      207
 151.6000      187
 151.6200      226
 151.6400      193
 151.6600      200
 151.6800      207
 151.7000      237
 151.7200      207
 151.7400      222
 151.7600      204
 151.7800      217
 151.8000      204
 151.8200      204
 151.8400      190
 151.8600      206
 151.8800      231
 151.9000      210
 151.9200      219
 151.9400      220
 151.9600      244
 151.9800      244
 152.0000      250
 152.0200      244
 152.0400      211
 152.0600      238
 152.0800      236
 152.1000      199
 152.1200      223
 152.1400      219
 152.1600      255
 152.1800      231
 152.2000      264
 152.2200      249
 152.2400      260
 152.2600      261
 152.2800      270
 152.3000      218
 152.3200      253
 152.3400      270
 152.3600      264
 152.3800      297
 152.4000      279
 152.4200      272
 152.4400      261
 152.4600      266
 152.4800      268
 152.5000      255
 152.5200      283
 152.5400      269
 152.5600      280
 152.5800      269
 152.6000      290
 152.6200      288
 152.6400      287
 152.6600      282
 152.6800      305
 152.7000      317
 152.7200      293
 152.7400      291
 152.7600      319
 152.7800      316
 152.8000      336
 152.8200      287
 152.8400      309
 152.8600      288
 152.8800      344
 152.9000      295
 152.9200      317
 152.9400      336
 152.9600      323
 152.9800      317
 153.0000      325
 153.0200      353
 153.0400      350
 153.0600      331
 153.0800      323
 153.1000      310
 153.1200      357
 153.1400      367
 153.1600      328
 153.1800      325
 153.2000      316
 153.2200      370
 153.2400      330
 153.2600      343
 153.2800      349
 153.3000      373
 153.3200      405
 153.3400      362
 153.3600      338
 153.3800      379
 153.4000      338
 153.4200      387
 153.4400      367
 153.4600      398
 153.4800      392
 153.5000      380
 153.5200      382
 153.5400      352
 153.5600      375
 153.5800      396
 153.6000      412
 153.6200      385
 153.6400      424
 153.6600      429
 153.6800      405
 153.7000      402
 153.7200      412
 153.7400      376
 153.7600      435
 153.7800      381
 153.8000      415
 153.8200      387
 153.8400      438
 153.8600      420
 153.8800      422
 153.9000      424
 153.9200      422
 153.9400      426
 153.9600      433
 153.9800      456
 154.0000      429
 154.0200      411
 154.0400      418
 154.0600      453
 154.0800      448
 154.1000      429
 154.1200      426
 154.1400      432
 154.1600      418
 154.1800      421
 154.2000      446
 154.2200      429
 154.2400      474
 154.2600      458
 154.2800      438
 154.3000      430
 154.3200      436
 154.3400      451
 154.3600      440
 154.3800      452
 154.4000      445
 154.4200      437
 154.4400      470
 154.4600      442
 154.4800      436
 154.5000      445
 154.5200      408
 154.5400      498
 154.5600      444
 154.5800      444
 154.6000      424
 154.6200      466
 154.6400      429
 154.6600      477
 154.6800      462
 154.7000      441
 154.7200      481
 154.7400      439
 154.7600      502
 154.7800      493
 154.8000      512
 154.8200      453
 154.8400      469
 154.8600      434
 154.8800      481
 154.9000      456
 154.9200      475
 154.9400      466
 154.9600      505
 154.9800      441
 155.0000      478

File: SDD_sample_name_01234_Psi-15_20180602-175721.txt
 150.0000      112
 150.0200      110
 150.0400      103
 150.0600      130
 150.0800      108
 150.1000       99
 150.1200      127
 150.1400      123
 150.1600      122
 150.1800      115
 150.2000      122
 150.2200      132
 150.2400      123
 150.2600      139
 150.2800      138
 150.3000      141
 150.3200      124
 150.3400      121
 150.3600      150
 150.3800      146
 150.4000      138
 150.4200      129
 150.4400      146
 150.4600      164
 150.4800      124
 150.5000      142
 150.5200      134
 150.5400      147
 150.5600      144
 150.5800      122
 150.6000      136
 150.6200      129
 150.6400      138
 150.6600      151
 150.6800      135
 150.7000      147
 150.7200      161
 150.7400      149
 150.7600      174
 150.7800      164
 150.8000      162
 150.8200      174
 150.8400      140
 150.8600      152
 150.8800      167
 150.9000      153
 150.9200      171
 150.9400      172
 150.9600      170
 150.9800      166
 151.0000      154
 151.0200      171
 151.0400      156
 151.0600      175
 151.0800      198
 151.1000      168
 151.1200      140
 151.1400      166
 151.1600      166
 151.1800      170
 151.2000      179
 151.2200      162
 151.2400      179
 151.2600      170
 151.2800      175
 151.3000      151
 151.3200      170
 151.3400      169
 151.3600      177
 151.3800      184
 151.4000      190
 151.4200      175
 151.4400      194
 151.4600      200
 151.4800      202
 151.5000      179
 151.5200      198
 151.5400      202
 151.5600      199
 151.5800      199
 151.6000      197
 151.6200      218
 151.6400      184
 151.6600      229
 151.6800      200
 151.7000      180
 151.7200      213
 151.7400      213
 151.7600      218
 151.7800      217
 151.8000      215
 151.8200      225
 151.8400      231
 151.8600      210
 151.8800      234
 151.9000      235
 151.9200      212
 151.9400      227
 151.9600      231
 151.9800      265
 152.0000      242
 152.0200      241
 152.0400      235
 152.0600      238
 152.0800      244
 152.1000      245
 152.1200      229
 152.1400      252
 152.1600      223
 152.1800      222
 152.2000      246
 152.2200      288
 152.2400      252
 152.2600      253
 152.2800      251
 152.3000      259
 152.3200      221
 152.3400      272
 152.3600      293
 152.3800      258
 152.4000      284
 152.4200      287
 152.4400      289
 152.4600      296
 152.4800      251
 152.5000      291
 152.5200      315
 152.5400      280
 152.5600      251
 152.5800      283
 152.6000      278
 152.6200      285
 152.6400      289
 152.6600      304
 152.6800      300
 152.7000      289
 152.7200      281
 152.7400      306
 152.7600      284
 152.7800      304
 152.8000      300
 152.8200      327
 152.8400      323
 152.8600      328
 152.8800      326
 152.9000      327
 152.9200      324
 152.9400      319
 152.9600      293
 152.9800      346
 153.0000      336
 153.0200      335
 153.0400      331
 153.0600      334
 153.0800      328
 153.1000      358
 153.1200      317
 153.1400      319
 153.1600      332
 153.1800      314
 153.2000      334
 153.2200      352
 153.2400      316
 153.2600      365
 153.2800      327
 153.3000      373
 153.3200      363
 153.3400      384
 153.3600      378
 153.3800      376
 153.4000      345
 153.4200      377
 153.4400      378
 153.4600      405
 153.4800      362
 153.5000      350
 153.5200      367
 153.5400      408
 153.5600      361
 153.5800      416
 153.6000      382
 153.6200      365
 153.6400      379
 153.6600      379
 153.6800      405
 153.7000      444
 153.7200      375
 153.7400      408
 153.7600      366
 153.7800      428
 153.8000      430
 153.8200      382
 153.8400      412
 153.8600      442
 153.8800      425
 153.9000      420
 153.9200      379
 153.9400      415
 153.9600      391
 153.9800      420
 154.0000      413
 154.0200      404
 154.0400      416
 154.0600      402
 154.0800      436
 154.1000      443
 154.1200      421
 154.1400      418
 154.1600      432
 154.1800      431
 154.2000      440
 154.2200      438
 154.2400      471
 154.2600      429
 154.2800      436
 154.3000      448
 154.3200      415
 154.3400      440
 154.3600      429
 154.3800      469
 154.4000      473
 154.4200      455
 154.4400      423
 154.4600      471
 154.4800      476
 154.5000      472
 154.5200      429
 154.5400      440
 154.5600      431
 154.5800      481
 154.6000      476
 154.6200      482
 154.6400      473
 154.6600      443
 154.6800      448
 154.7000      444
 154.7200      432
 154.7400      439
 154.7600      435
 154.7800      463
 154.8000      444
 154.8200      437
 154.8400      474
 154.8600      482
 154.8800      464
 154.9000      488
 154.9200      423
 154.9400      466
 154.9600      467
 154.9800      457
 155.0000      460

File: SDD_sample_name_01234_Psi-15_20180602-195354.txt
 150.0000      142
 150.0400      105
 150.0800      118
 150.1200      124
 150.1600      121
 150.2000      104
 150.2400      121
 150.2800      118
 150.3200      129
 150.3600      136
 150.4000      144
 150.4400      141
 150.4800      126
 150.5200      111
 150.5600      138
 150.6000      148
 150.6400      161
 150.6800      143
 150.7200      145
 150.7600      130
 150.8000      161
 150.8400      140
 150.8800      158
 150.9200      160
 150.9600      165
 151.0000      169
 151.0400      163
 151.0800      185
 151.1200      177
 151.1600      151
 151.2000      170
 151.2400      179
 151.2800      188
 151.3200      154
 151.3600      165
 151.4000      179
 151.4400      177
 151.4800      182
 151.5200      192
 151.5600      205
 151.6000      205
 151.6400      201
 151.6800      202
 151.7200      227
 151.7600      200
 151.8000      235
 151.8400      218
 151.8800      231
 151.9200      233
 151.9600      233
 152.0000      250
 152.0400      247
 152.0800      241
 152.1200      235
 152.1600      241
 152.2000      248
 152.2400      260
 152.2800      235
 152.3200      242
 152.3600      283
 152.4000      250
 152.4400      276
 152.4800      295
 152.5200      281
 152.5600      289
 152.6000      312
 152.6400      271
 152.6800      276
 152.7200      324
 152.7600      310
 152.8000      294
 152.8400      308
 152.8800      342
 152.9200      323
 152.9600      284
 153.0000      333
 153.0400      324
 153.0800      327
 153.1200      342
 153.1600      364
 153.2000      344
 153.2400      352
 153.2800      369
 153.3200      313
 153.3600      387
 153.4000      366
 153.4400      372
 153.4800      363
 153.5200      362
 153.5600      374
 153.6000      382
 153.6400      451
 153.6800      386
 153.7200      415
 153.7600      426
 153.8000      444
 153.8400      408
 153.8800      435
 153.9200      391
 153.9600      424
 154.0000      419
 154.0400      440
 154.0800      416
 154.1200      405
 154.1600      408
 154.2000      403
 154.2400      457
 154.2800      411
 154.3200      433
 154.3600      475
 154.4000      463
 154.4400      437
 154.4800      442
 154.5200      455
 154.5600      469
 154.6000      436
 154.6400      473
 154.6800      454
 154.7200      438
 154.7600      433
 154.8000      430
 154.8400      482
 154.8800      482
 154.9200      490
 154.9600      464
 155.0000      479
 155.0400      496
 155.0800      483
 155.1200      462
 155.1600      439
 155.2000      419
 155.2400      470
 155.2800      460
 155.3200      444
 155.3600      414
 155.4000      449
 155.4400      454
 155.4800      475
 155.5200      482
 155.5600      442
 155.6000      452
 155.6400      469
 155.6800      466
 155.7200      446
 155.7600      460
 155.8000      461
 155.8400      401
 155.8800      422
 155.9200      441
 155.9600      427
 156.0000      438
 156.0400      413
 156.0800      408
 156.1200      417
 156.1600      421
 156.2000      430
 156.2400      400
 156.2800      419
 156.3200      398
 156.3600      411
 156.4000      376
 156.4400      375
 156.4800      376
 156.5200      351
 156.5600      381
 156.6000      418
 156.6400      350
 156.6800      374
 156.7200      369
 156.7600      355
 156.8000      343
 156.8400      347
 156.8800      326
 156.9200      400
 156.9600      354
 157.0000      348
 157.0400      324
 157.0800      342
 157.1200      344
 157.1600      348
 157.2000      358
 157.2400      318
 157.2800      354
 157.3200      316
 157.3600      276
 157.4000      323
 157.4400      292
 157.4800      335
 157.5200      285
 157.5600      304
 157.6000      312
 157.6400      299
 157.6800      276
 157.7200      257
 157.7600      271
 157.8000      282
 157.8400      322
 157.8800      283
 157.9200      255
 157.9600      269
 158.0000      262

File: SDD_sample_name_01234_Psi-30_20180527-115840.txt
 147.5000       55
 147.5200       43
 147.5400       49
 147.5600       55
 147.5800       47
 147.6000       47
 147.6200       48
 147.6400       57
 147.6600       53
 147.6800       43
 147.7000       50
 147.7200       61
 147.7400       61
 147.7600       53
 147.7800       61
 147.8000       59
 147.8200       43
 147.8400       45
 147.8600       61
 147.8800       47
 147.9000       52
 147.9200       63
 147.9400       43
 147.9600       48
 147.9800       63
 148.0000       57
 148.0200       46
 148.0400       50
 148.0600       53
 148.0800       49
 148.1000       61
 148.1200       59
 148.1400       63
 148.1600       44
 148.1800       56
 148.2000       54
 148.2200       56
 148.2400       52
 148.2600       49
 148.2800       57
 148.3000       53
 148.3200       57
 148.3400       34
 148.3600       49
 148.3800       47
 148.4000       48
 148.4200       50
 148.4400       58
 148.4600       40
 148.4800       59
 148.5000       71
 148.5200       56
 148.5400       53
 148.5600       48
 148.5800       54
 148.6000       52
 148.6200       56
 148.6400       51
 148.6600       60
 148.6800       50
 148.7000       57
 148.7200       65
 148.7400       60
 148.7600       72
 148.7800       44
 148.8000       68
 148.8200       40
 148.8400       48
 148.8600       51
 148.8800       60
 148.9000       55
 148.9200       43
 148.9400       54
 148.9600       60
 148.9800       57
 149.0000       56
 149.0200       52
 149.0400       58
 149.0600       40
 149.0800       56
 149.1000       42
 149.1200       46
 149.1400       54
 149.1600       59
 149.1800       70
 149.2000       57
 149.2200       55
 149.2400       60
 149.2600       49
 149.2800       58
 149.3000       45
 149.3200       65
 149.3400       50
 149.3600       51
 149.3800       57
 149.4000       60
 149.4200       67
 149.4400       51
 149.4600       61
 149.4800       56
 149.5000       60
 149.5200       65
 149.5400       59
 149.5600       53
 149.5800       51
 149.6000       54
 149.6200       49
 149.6400       59
 149.6600       63
 149.6800       63
 149.7000       62
 149.7200       59
 149.7400       66
 149.7600       44
 149.7800       53
 149.8000       68
 149.8200       59
 149.8400       67
 149.8600       67
 149.8800       62
 149.9000       56
 149.9200       68
 149.9400       60
 149.9600       71
 149.9800       43
 150.0000       64
 150.0200       46
 150.0400       72
 150.0600       64
 150.0800       56
 150.1000       61
 150.1200       61
 150.1400       69
 150.1600       54
 150.1800       58
 150.2000       60
 150.2200       59
 150.2400       48
 150.2600       48
 150.2800       74
 150.3000       56
 150.3200       66
 150.3400       67
 150.3600       65
 150.3800       72
 150.4000       81
 150.4200       79
 150.4400       72
 150.4600       74
 150.4800       69
 150.5000       57
 150.5200       65
 150.5400       77
 150.5600       68
 150.5800       61
 150.6000       64
 150.6200       74
 150.6400       70
 150.6600       71
 150.6800       84
 150.7000       70
 150.7200       65
 150.7400       88
 150.7600       67
 150.7800       62
 150.8000       57
 150.8200       69
 150.8400       68
 150.8600       75
 150.8800       59
 150.9000       82
 150.9200       70
 150.9400       89
 150.9600       57
 150.9800       68
 151.0000       65
 151.0200       64
 151.0400       70
 151.0600       63
 151.0800       74
 151.1000       88
 151.1200       80
 151.1400       76
 151.1600       74
 151.1800      100
 151.2000       79
 151.2200       66
 151.2400       75
 151.2600       75
 151.2800       80
 151.3000       74
 151.3200       89
 151.3400      107
 151.3600       70
 151.3800       83
 151.4000       67
 151.4200       83
 151.4400       87
 151.4600       74
 151.4800       82
 151.5000      101
 151.5200       97
 151.5400       81
 151.5600       80
 151.5800       72
 151.6000       80
 151.6200       84
 151.6400       85
 151.6600       99
 151.6800       74
 151.7000       88
 151.7200       86
 151.7400       89
 151.7600       72
 151.7800      105
 151.8000       71
 151.8200       88
 151.8400       87
 151.8600       97
 151.8800       85
 151.9000       91
 151.9200      107
 151.9400       83
 151.9600       92
 151.9800       93
 152.0000       94
 152.0200       84
 152.0400       97
 152.0600      113
 152.0800       75
 152.1000       93
 152.1200       94
 152.1400       94
 152.1600      102
 152.1800      101
 152.2000      103
 152.2200      111
 152.2400      120
 152.2600      100
 152.2800       98
 152.3000      108
 152.3200      114
 152.3400      114
 152.3600      105
 152.3800      121
 152.4000      116
 152.4200      120
 152.4400       93
 152.4600      119
 152.4800      117
 152.5000      125