Folder: xrd/XRD_Tool/XRD_Tool/bin/Debug (part 10)

File: LDA_sample_name_56789_Psi-24_20180622-235710.txt
138.0000     291
138.0800     332
138.1600     180
138.2400     202
138.3200     259
138.4000     296
138.4800     273
138.5600     174
138.6400     223
138.7200     237
138.8000     237
138.8800     206
138.9600     305
139.0400     189
139.1200     267
139.2000     343
139.2800     192
139.3600     190
139.4400     286
139.5200     173
139.6000     223
139.6800     210
139.7600     215
139.8400     234
139.9200     179
140.0000     127
140.0800     333
140.1600     165
140.2400     281
140.3200     275
140.4000     240
140.4800     282
140.5600     248
140.6400     157
140.7200     220
140.8000     213
140.8800     243
140.9600     229
141.0400     216
141.1200     245
141.2000     253
141.2800     219
141.3600     291
141.4400     181
141.5200     298
141.6000     236
141.6800     328
141.7600     262
141.8400     234
141.9200     254
142.0000     334
142.0800     208
142.1600     163
142.2400     200
142.3200     213
142.4000     300
142.4800     268
142.5600     427
142.6400     345
142.7200     329
142.8000     279
142.8800     288
142.9600     301
143.0400     265
143.1200     276
143.2000     350
143.2800     311
143.3600     350
143.4400     363
143.5200     306
143.6000     286
143.6800     393
143.7600     193
143.8400     320
143.9200     247
144.0000     310
144.0800     328
144.1600     238
144.2400     320
144.3200     379
144.4000     332
144.4800     257
144.5600     339
144.6400     319
144.7200     235
144.8000     348
144.8800     284
144.9600     348
145.0400     273
145.1200     267
145.2000     277
145.2800     295
145.3600     331
145.4400     388
145.5200     397
145.6000     315
145.6800     283
145.7600     250
145.8400     236
145.9200     232
146.0000     327
146.0800     385
146.1600     301
146.2400     254
146.3200     258
146.4000     316
146.4800     408
146.5600     239
146.6400     263
146.7200     359
146.8000     306
146.8800     304
146.9600     401
147.0400     279
147.1200     291
147.2000     255
147.2800     347
147.3600     279
147.4400     359
147.5200     295
147.6000     279
147.6800     366
147.7600     301
147.8400     415
147.9200     344
148.0000     324
148.0800     338
148.1600     309
148.2400     483
148.3200     360
148.4000     389
148.4800     415
148.5600     376
148.6400     492
148.7200     360
148.8000     396
148.8800     439
148.9600     316
149.0400     419
149.1200     504
149.2000     474
149.2800     462
149.3600     343
149.4400     441
149.5200     460
149.6000     520
149.6800     388
149.7600     482
149.8400     418
149.9200     422
150.0000     406
150.0800     497
150.1600     468
150.2400     467
150.3200     447
150.4000     373
150.4800     459
150.5600     550
150.6400     511
150.7200     475
150.8000     510
150.8800     535
150.9600     528
151.0400     585
151.1200     638
151.2000     508
151.2800     698
151.3600     598
151.4400     660
151.5200     639
151.6000     697
151.6800     769
151.7600     752
151.8400     739
151.9200     827
152.0000     878
152.0800     774
152.1600     805
152.2400     909
152.3200     860
152.4000    1097
152.4800    1056
152.5600    1132
152.6400    1352
152.7200    1379
152.8000    1305
152.8800    1583
152.9600    1429
153.0400    1473
153.1200    1674
153.2000    1775
153.2800    1755
153.3600    1911
153.4400    1893
153.5200    2124
153.6000    2280
153.6800    2251
153.7600    2286
153.8400    2393
153.9200    2256
154.0000    2224
154.0800    2373
154.1600    2608
154.2400    2327
154.3200    2507
154.4000    2489
154.4800    2447
154.5600    2650
154.6400    2485
154.7200    2316
154.8000    2214
154.8800    2243
154.9600    2310
155.0400    2178
155.1200    1976
155.2000    2124
155.2800    2018
155.3600    1948
155.4400    1775
155.5200    1723
155.6000    1576
155.6800    1655
155.7600    1578
155.8400    1523
155.9200    1365
156.0000    1366
156.0800    1273
156.1600    1253
156.2400    1221
156.3200    1197
156.4000    1070
156.4800    1179
156.5600    1068
156.6400     979
156.7200    1120
156.8000     837
156.8800     953
156.9600     847
157.0400     789
157.1200     756
157.2000     662
157.2800     751
157.3600     732
157.4400     672
157.5200     529
157.6000     617
157.6800     716
157.7600     666
157.8400     571
157.9200     560
158.0000     515
158.0800     562
158.1600     607
158.2400     522
158.3200     543
158.4000     521
158.4800     555
158.5600     546
158.6400     541
158.7200     483
158.8000     423
158.8800     385
158.9600     428
159.0400     499
159.1200     417
159.2000     479
159.2800     479
159.3600     387
159.4400     397
159.5200     391
159.6000     457
159.6800     352
159.7600     400
159.8400     371
159.9200     425
160.0000     388
160.0800     371
160.1600     383
160.2400     324
160.3200     447
160.4000     418
160.4800     395
160.5600     392
160.6400     234
160.7200     302
160.8000     348
160.8800     268
160.9600     310
161.0400     259
161.1200     262
161.2000     360
161.2800     262
161.3600     294
161.4400     340
161.5200     302
161.6000     330
161.6800     378
161.7600     266
161.8400     351
161.9200     300
161.9800     253

File: LDA_sample_name_56789_Psi-24_20180622-235823.txt
141.0000     309
141.0800     296
141.1600     240
141.2400     194
141.3200     239
141.4000     239
141.4800     212
141.5600     253
141.6400     215
141.7200     291
141.8000     300
141.8800     259
141.9600     228
142.0400     209
142.1200     330
142.2000     193
142.2800     297
142.3600     154
142.4400     210
142.5200     156
142.6000     266
142.6800     267
142.7600     209
142.8400     292
142.9200     328
143.0000     286
143.0800     158
143.1600     294
143.2400     230
143.3200     399
143.4000     287
143.4800     350
143.5600     312
143.6400     264
143.7200     325
143.8000     244
143.8800     176
143.9600     290
144.0400     241
144.1200     320
144.2000     252
144.2800     282
144.3600     359
144.4400     276
144.5200     326
144.6000     263
144.6800     319
144.7600     208
144.8400     257
144.9200     259
145.0000     430
145.0800     299
145.1600     273
145.2400     287
145.3200     299
145.4000     285
145.4800     329
145.5600     418
145.6400     322
145.7200     446
145.8000     234
145.8800     287
145.9600     321
146.0400     422
146.1200     322
146.2000     331
146.2800     275
146.3600     415
146.4400     312
146.5200     489
146.6000     323
146.6800     369
146.7600     286
146.8400     322
146.9200     263
147.0000     302
147.0800     424
147.1600     349
147.2400     360
147.3200     357
147.4000     304
147.4800     293
147.5600     258
147.6400     301
147.7200     405
147.8000     401
147.8800     395
147.9600     345
148.0400     413
148.1200     456
148.2000     383
148.2800     338
148.3600     379
148.4400     381
148.5200     310
148.6000     410
148.6800     392
148.7600     470
148.8400     387
148.9200     364
149.0000     406
149.0800     299
149.1600     405
149.2400     348
149.3200     404
149.4000     459
149.4800     423
149.5600     447
149.6400     431
149.7200     395
149.8000     380
149.8800     375
149.9600     398
150.0400     384
150.1200     475
150.2000     474
150.2800     439
150.3600     483
150.4400     491
150.5200     503
150.6000     466
150.6800     523
150.7600     611
150.8400     569
150.9200     529
151.0000     566
151.0800     558
151.1600     555
151.2400     591
151.3200     651
151.4000     695
151.4800     699
151.5600     806
151.6400     767
151.7200     713
151.8000     779
151.8800     858
151.9600     815
152.0400     935
152.1200     849
152.2000     940
152.2800     985
152.3600     975
152.4400    1178
152.5200    1171
152.6000    1264
152.6800    1276
152.7600    1363
152.8400    1443
152.9200    1485
153.0000    1448
153.0800    1643
153.1600    1779
153.2400    1882
153.3200    1944
153.4000    1909
153.4800    2065
153.5600    2092
153.6400    2097
153.7200    2248
153.8000    2293
153.8800    2248
153.9600    2340
154.0400    2519
154.1200    2266
154.2000    2584
154.2800    2697
154.3600    2560
154.4400    2781
154.5200    2483
154.6000    2703
154.6800    2530
154.7600    2407
154.8400    2240
154.9200    2317
155.0000    2397
155.0800    2177
155.1600    2129
155.2400    2173
155.3200    2047
155.4000    2050
155.4800    1818
155.5600    1820
155.6400    1834
155.7200    1646
155.8000    1672
155.8800    1662
155.9600    1636
156.0400    1587
156.1200    1457
156.2000    1317
156.2800    1233
156.3600    1228
156.4400    1225
156.5200    1154
156.6000    1138
156.6800    1018
156.7600     937
156.8400     960
156.9200     944
157.0000     747
157.0800     850
157.1600     876
157.2400     789
157.3200     834
157.4000     729
157.4800     642
157.5600     734
157.6400     644
157.7200     602
157.8000     658
157.8800     637
157.9600     609
158.0400     651
158.1200     592
158.2000     539
158.2800     638
158.3600     613
158.4400     531
158.5200     529
158.6000     578
158.6800     542
158.7600     467
158.8400     481
158.9200     463
159.0000     424
159.0800     485
159.1600     416
159.2400     390
159.3200     529
159.4000     404
159.4800     503
159.5600     498
159.6400     479
159.7200     415
159.8000     418
159.8800     347
159.9600     503
160.0400     358
160.1200     453
160.2000     342
160.2800     466
160.3600     391
160.4400     414
160.5200     290
160.6000     363
160.6800     472
160.7600     411
160.8400     386
160.9200     444
161.0000     402
161.0800     414
161.1600     489
161.2400     337
161.3200     314
161.4000     350
161.4800     362
161.5600     391
161.6400     355
161.7200     414
161.8000     352
161.8800     317
161.9600     344
162.0400     345
162.1200     291
162.2000     426
162.2800     382
162.3600     301
162.4400     354
162.5200     330
162.6000     304
162.6800     430
162.7600     326
162.8400     256
162.9200     368
163.0000     377
163.0800     323
163.1600     249
163.2400     234
163.3200     289
163.4000     335
163.4800     305
163.5600     297
163.6400     389
163.7200     355
163.8000     252
163.8800     227
163.9600     320
164.0400     293
164.1200     341
164.2000     253
164.2800     214
164.3600     237
164.4400     183
164.5200     338
164.6000     233
164.6800     236
164.7600     179
164.8400     255
164.9200     228
164.9800     237

File: LDA_sample_name_56789_Psi-24_20180623-000243.txt
141.0000     258
141.0800     234
141.1600     141
141.2400     177
141.3200     174
141.4000     162
141.4800     160
141.5600     174
141.6400     262
141.7200     278
141.8000     175
141.8800     211
141.9600     220
142.0400     105
142.1200     190
142.2000     197
142.2800     219
142.3600     216
142.4400     208
142.5200     275
142.6000     265
142.6800     302
142.7600     130
142.8400     208
142.9200     184
143.0000     182
143.0800     187
143.1600     335
143.2400     199
143.3200     188
143.4000     225
143.4800     162
143.5600     315
143.6400     235
143.7200     185
143.8000     234
143.8800     252
143.9600     196
144.0400     186
144.1200     144
144.2000     166
144.2800     194
144.3600      91
144.4400     136
144.5200     258
144.6000     114
144.6800     224
144.7600     127
144.8400     202
144.9200     238
145.0000     239
145.0800     131
145.1600     201
145.2400     249
145.3200     317
145.4000     229
145.4800     311
145.5600     264
145.6400     275
145.7200     290
145.8000     230
145.8800     200
145.9600     298
146.0400     242
146.1200     274
146.2000     152
146.2800     297
146.3600     287
146.4400     276
146.5200     122
146.6000     215
146.6800     318
146.7600     293
146.8400     264
146.9200     151
147.0000     345
147.0800     228
147.1600     253
147.2400     349
147.3200     364
147.4000     343
147.4800     257
147.5600     294
147.6400     253
147.7200     209
147.8000     265
147.8800     278
147.9600     283
148.0400     267
148.1200     356
148.2000     320
148.2800     214
148.3600     225
148.4400     364
148.5200     166
148.6000     272
148.6800     287
148.7600     193
148.8400     345
148.9200     268
149.0000     343
149.0800     309
149.1600     274
149.2400     299
149.3200     306
149.4000     286
149.4800     336
149.5600     300
149.6400     382
149.7200     349
149.8000     418
149.8800     405
149.9600     405
150.0400     388
150.1200     491
150.2000     414
150.2800     388
150.3600     419
150.4400     494
150.5200     402
150.6000     431
150.6800     518
150.7600     600
150.8400     498
150.9200     508
151.0000     528
151.0800     596
151.1600     483
151.2400     533
151.3200     621
151.4000     611
151.4800     637
151.5600     773
151.6400     601
151.7200     767
151.8000     837
151.8800     621
151.9600     719
152.0400     739
152.1200     712
152.2000     926
152.2800     897
152.3600    1023
152.4400    1007
152.5200    1041
152.6000    1112
152.6800    1217
152.7600    1191
152.8400    1281
152.9200    1507
153.0000    1496
153.0800    1691
153.1600    1616
153.2400    1749
153.3200    1797
153.4000    1905
153.4800    1946
153.5600    2162
153.6400    2042
153.7200    2314
153.8000    2211
153.8800    2318
153.9600    2360
154.0400    2234
154.1200    2535
154.2000    2559
154.2800    2405
154.3600    2466
154.4400    2485
154.5200    2442
154.6000    2482
154.6800    2553
154.7600    2453
154.8400    2240
154.9200    2235
155.0000    2139
155.0800    2102
155.1600    1986
155.2400    1875
155.3200    1777
155.4000    1876
155.4800    1748
155.5600    1834
155.6400    1830
155.7200    1808
155.8000    1506
155.8800    1489
155.9600    1515
156.0400    1389
156.1200    1328
156.2000    1216
156.2800    1107
156.3600    1041
156.4400    1097
156.5200    1023
156.6000    1001
156.6800     865
156.7600     891
156.8400     944
156.9200     767
157.0000     895
157.0800     751
157.1600     719
157.2400     691
157.3200     709
157.4000     638
157.4800     628
157.5600     642
157.6400     554
157.7200     644
157.8000     495
157.8800     560
157.9600     412
158.0400     497
158.1200     609
158.2000     483
158.2800     551
158.3600     431
158.4400     505
158.5200     429
158.6000     486
158.6800     399
158.7600     447
158.8400     447
158.9200     449
159.0000     380
159.0800     352
159.1600     384
159.2400     402
159.3200     339
159.4000     390
159.4800     419
159.5600     312
159.6400     405
159.7200     377
159.8000     371
159.8800     344
159.9600     348
160.0400     377
160.1200     346
160.2000     241
160.2800     231
160.3600     319
160.4400     366
160.5200     214
160.6000     355
160.6800     321
160.7600     413
160.8400     309
160.9200     308
161.0000     301
161.0800     301
161.1600     294
161.2400     308
161.3200     201
161.4000     316
161.4800     310
161.5600     330
161.6400     277
161.7200     225
161.8000     269
161.8800     212
161.9600     281
162.0400     332
162.1200     316
162.2000     239
162.2800     234
162.3600     291
162.4400     286
162.5200     303
162.6000     220
162.6800     197
162.7600     213
162.8400     250
162.9200     243
163.0000     257
163.0800     281
163.1600     240
163.2400     181
163.3200     212
163.4000     319
163.4800     331
163.5600      79
163.6400     216
163.7200     211
163.8000     272
163.8800     267
163.9600     117
164.0400     208
164.1200     215
164.2000     235
164.2800     198
164.3600     181
164.4400     298
164.5200     190
164.6000     132
164.6800     136
164.7600     261
164.8400     165
164.9200     209
164.9800     127

File: LDA_sample_name_56789_Psi-24_20180623-000344.txt
141.0000     383
141.0800     308
141.1600     318
141.2400     243
141.3200     229
141.4000     265
141.4800     241
141.5600     269
141.6400     283
141.7200     248
141.8000     263
141.8800     305
141.9600     265
142.0400     295
142.1200     373
142.2000     219
142.2800     286
142.3600     216
142.4400     230
142.5200     252
142.6000     300
142.6800     280
142.7600     167
142.8400     243
142.9200     315
143.0000     215
143.0800     223
143.1600     204
143.2400     296
143.3200     415
143.4000     241
143.4800     267
143.5600     298
143.6400     201
143.7200     256
143.8000     327
143.8800     272
143.9600     332
144.0400     236
144.1200     346
144.2000     349
144.2800     294
144.3600     235
144.4400     290
144.5200     327
144.6000     348
144.6800     251
144.7600     151
144.8400     364
144.9200     215
145.0000     372
145.0800     350
145.1600     170
145.2400     340
145.3200     266
145.4000     404
145.4800     313
145.5600     390
145.6400     242
145.7200     335
145.8000     361
145.8800     422
145.9600     306
146.0400     358
146.1200     362
146.2000     379
146.2800     335
146.3600     346
146.4400     346
146.5200     467
146.6000     348
146.6800     385
146.7600     370
146.8400     392
146.9200     337
147.0000     352
147.0800     346
147.1600     361
147.2400     377
147.3200     341
147.4000     311
147.4800     344
147.5600     358
147.6400     338
147.7200     400
147.8000     439
147.8800     311
147.9600     408
148.0400     330
148.1200     335
148.2000     370
148.2800     293
148.3600     356
148.4400     381
148.5200     473
148.6000     403
148.6800     415
148.7600     304
148.8400     489
148.9200     199
149.0000     376
149.0800     318
149.1600     376
149.2400     360
149.3200     364
149.4000     431
149.4800     369
149.5600     458
149.6400     370
149.7200     477
149.8000     343
149.8800     407
149.9600     451
150.0400     450
150.1200     498
150.2000     376
150.2800     496
150.3600     544
150.4400     531
150.5200     526
150.6000     463
150.6800     614
150.7600     635
150.8400     554
150.9200     591
151.0000     645
151.0800     530
151.1600     501
151.2400     697
151.3200     634
151.4000     763
151.4800     721
151.5600     728
151.6400     763
151.7200     818
151.8000     841
151.8800     883
151.9600     877
152.0400     752
152.1200     895
152.2000     905
152.2800    1031
152.3600    1044
152.4400    1027
152.5200    1183
152.6000    1250
152.6800    1124
152.7600    1351
152.8400    1396
152.9200    1484
153.0000    1528
153.0800    1587
153.1600    1774
153.2400    1881
153.3200    1993
153.4000    1809
153.4800    2106
153.5600    2130
153.6400    2224
153.7200    2391
153.8000    2319
153.8800    2349
153.9600    2350
154.0400    2475
154.1200    2323
154.2000    2521
154.2800    2658
154.3600    2477
154.4400    2808
154.5200    2442
154.6000    2470
154.6800    2604
154.7600    2391
154.8400    2353
154.9200    2274
155.0000    2167
155.0800    2243
155.1600    2185
155.2400    2078
155.3200    1921
155.4000    1963
155.4800    1889
155.5600    1841
155.6400    1854
155.7200    1763
155.8000    1736
155.8800    1678
155.9600    1405
156.0400    1548
156.1200    1411
156.2000    1420
156.2800    1285
156.3600    1245
156.4400    1159
156.5200    1101
156.6000    1141
156.6800    1021
156.7600     941
156.8400     837
156.9200     890
157.0000     803
157.0800     896
157.1600     906
157.2400     738
157.3200     754
157.4000     801
157.4800     753
157.5600     653
157.6400     590
157.7200     549
157.8000     657
157.8800     571
157.9600     576
158.0400     529
158.1200     576
158.2000     580
158.2800     511
158.3600     651
158.4400     527
158.5200     508
158.6000     554
158.6800     472
158.7600     536
158.8400     563
158.9200     318
159.0000     469
159.0800     471
159.1600     476
159.2400     529
159.3200     462
159.4000     510
159.4800     537
159.5600     327
159.6400     462
159.7200     304
159.8000     445
159.8800     448
159.9600     372
160.0400     423
160.1200     344
160.2000     427
160.2800     450
160.3600     401
160.4400     421
160.5200     407
160.6000     408
160.6800     399
160.7600     408
160.8400     421
160.9200     285
161.0000     320
161.0800     432
161.1600     391
161.2400     429
161.3200     424
161.4000     371
161.4800     453
161.5600     477
161.6400     352
161.7200     444
161.8000     344
161.8800     407
161.9600     304
162.0400     375
162.1200     331
162.2000     382
162.2800     400
162.3600     392
162.4400     350
162.5200     415
162.6000     331
162.6800     232
162.7600     275
162.8400     345
162.9200     295
163.0000     313
163.0800     417
163.1600     311
163.2400     399
163.3200     326
163.4000     276
163.4800     298
163.5600     403
163.6400     244
163.7200     269
163.8000     283
163.8800     303
163.9600     299
164.0400     317
164.1200     323
164.2000     351
164.2800     265
164.3600     317
164.4400     231
164.5200     225
164.6000     236
164.6800     256
164.7600     193
164.8400     276
164.9200     316
164.9800     233

File: LDA_sample_name_56789_Psi-24_20180623-122757.txt
138.0000     184
138.0800     116
138.1600     159
138.2400     145
138.3200     189
138.4000     147
138.4800     166
138.5600     184
138.6400     231
138.7200     151
138.8000     145
138.8800     120
138.9600     183
139.0400     147
139.1200     104
139.2000     150
139.2800     113
139.3600     200
139.4400     233
139.5200     141
139.6000     129
139.6800     146
139.7600     171
139.8400     162
139.9200     174
140.0000     172
140.0800     310
140.1600     184
140.2400     259
140.3200     202
140.4000     164
140.4800     193
140.5600     216
140.6400     217
140.7200     258
140.8000     282
140.8800     192
140.9600     212
141.0400     235
141.1200     252
141.2000     253
141.2800     343
141.3600     145
141.4400     183
141.5200     196
141.6000     184
141.6800     307
141.7600     146
141.8400     220
141.9200     169
142.0000     203
142.0800     303
142.1600     209
142.2400     243
142.3200     273
142.4000     230
142.4800     245
142.5600     307
142.6400     250
142.7200     239
142.8000     189
142.8800     271
142.9600     208
143.0400     190
143.1200     164
143.2000     214
143.2800     293
143.3600     215
143.4400     275
143.5200     330
143.6000     209
143.6800     213
143.7600     332
143.8400     233
143.9200     315
144.0000     246
144.0800     163
144.1600     286
144.2400     168
144.3200     205
144.4000     256
144.4800     317
144.5600     258
144.6400     241
144.7200     311
144.8000     311
144.8800     247
144.9600     271
145.0400     318
145.1200     335
145.2000     231
145.2800     315
145.3600     367
145.4400     326
145.5200     381
145.6000     287
145.6800     250
145.7600     341
145.8400     332
145.9200     275
146.0000     277
146.0800     227
146.1600     263
146.2400     288
146.3200     230
146.4000     343
146.4800     234
146.5600     206
146.6400     295
146.7200     279
146.8000     336
146.8800     348
146.9600     269
147.0400     375
147.1200     260
147.2000     352
147.2800     367
147.3600     363
147.4400     431
147.5200     367
147.6000     277
147.6800     329
147.7600     314
147.8400     336
147.9200     374
148.0000     422
148.0800     267
148.1600     396
148.2400     260
148.3200     302
148.4000     390
148.4800     312
148.5600     309
148.6400     410
148.7200     380
148.8000     369
148.8800     478
148.9600     397
149.0400     332
149.1200     352
149.2000     344
149.2800     357
149.3600     371
149.4400     380
149.5200     455
149.6000     313
149.6800     431
149.7600     418
149.8400     385
149.9200     453
150.0000     432
150.0800     398
150.1600     493
150.2400     475
150.3200     463
150.4000     520
150.4800     475
150.5600     449
150.6400     483
150.7200     539
150.8000     568
150.8800     460
150.9600     557
151.0400     505
151.1200     500
151.2000     682
151.2800     592
151.3600     602
151.4400     605
151.5200     607
151.6000     580
151.6800     648
151.7600     615
151.8400     694
151.9200     718
152.0000     713
152.0800     845
152.1600     864
152.2400     833
152.3200     858
152.4000     888
152.4800     972
152.5600    1112
152.6400    1102
152.7200    1158
152.8000    1225
152.8800    1159
152.9600    1372
153.0400    1443
153.1200    1372
153.2000    1515
153.2800    1580
153.3600    1745
153.4400    1691
153.5200    1681
153.6000    1991
153.6800    1950
153.7600    2068
153.8400    2129
153.9200    2080
154.0000    2137
154.0800    2214
154.1600    2480
154.2400    2154
154.3200    2331
154.4000    2225
154.4800    2233
154.5600    2432
154.6400    2255
154.7200    2242
154.8000    2035
154.8800    2124
154.9600    2155
155.0400    2067
155.1200    2060
155.2000    1896
155.2800    1679
155.3600    1746
155.4400    1820
155.5200    1584
155.6000    1586
155.6800    1392
155.7600    1548
155.8400    1501
155.9200    1348
156.0000    1127
156.0800    1237
156.1600    1141
156.2400    1130
156.3200    1081
156.4000    1020
156.4800    1058
156.5600     937
156.6400     848
156.7200     860
156.8000     775
156.8800     797
156.9600     813
157.0400     834
157.1200     765
157.2000     740
157.2800     685
157.3600     698
157.4400     649
157.5200     673
157.6000     725
157.6800     646
157.7600     665
157.8400     594
157.9200     495
158.0000     642
158.0800     528
158.1600     553
158.2400     558
158.3200     523
158.4000     593
158.4800     505
158.5600     606
158.6400     534
158.7200     524
158.8000     563
158.8800     532
158.9600     507
159.0400     412
159.1200     445
159.2000     397
159.2800     498
159.3600     462
159.4400     443
159.5200     483
159.6000     459
159.6800     418
159.7600     429
159.8400     379
159.9200     416
160.0000     407
160.0800     527
160.1600     394
160.2400     437
160.3200     410
160.4000     437
160.4800     366
160.5600     465
160.6400     474
160.7200     389
160.8000     353
160.8800     410
160.9600     326
161.0400     454
161.1200     401
161.2000     303
161.2800     453
161.3600     451
161.4400     439
161.5200     380
161.6000     361
161.6800     289
161.7600     388
161.8400     319
161.9200     451
161.9800     322