Folder: xrd/XRD_Tool/XRD_Tool/bin/Debug (part 17)

File: SDD_sample_name_001_Psi-30_20180528-074623.txt
 150.0000       58
 150.0400       49
 150.0800       58
 150.1200       77
 150.1600       73
 150.2000       56
 150.2400       59
 150.2800       61
 150.3200       66
 150.3600       60
 150.4000       59
 150.4400       68
 150.4800       58
 150.5200       63
 150.5600       61
 150.6000       65
 150.6400       54
 150.6800       75
 150.7200       60
 150.7600       68
 150.8000       74
 150.8400       89
 150.8800       71
 150.9200       62
 150.9600       60
 151.0000       77
 151.0400       62
 151.0800       73
 151.1200       76
 151.1600       82
 151.2000       68
 151.2400       72
 151.2800       65
 151.3200       75
 151.3600       76
 151.4000       77
 151.4400       67
 151.4800       78
 151.5200       76
 151.5600      102
 151.6000       84
 151.6400      104
 151.6800       89
 151.7200       82
 151.7600       98
 151.8000       84
 151.8400       92
 151.8800       96
 151.9200       98
 151.9600      101
 152.0000      102
 152.0400      110
 152.0800      109
 152.1200       85
 152.1600       98
 152.2000      110
 152.2400      120
 152.2800      116
 152.3200      112
 152.3600      111
 152.4000      130
 152.4400      108
 152.4800      118
 152.5200      113
 152.5600      130
 152.6000      136
 152.6400      111
 152.6800      133
 152.7200      138
 152.7600      132
 152.8000      147
 152.8400      140
 152.8800      149
 152.9200      144
 152.9600      167
 153.0000      166
 153.0400      162
 153.0800      160
 153.1200      157
 153.1600      200
 153.2000      157
 153.2400      188
 153.2800      191
 153.3200      171
 153.3600      203
 153.4000      220
 153.4400      242
 153.4800      212
 153.5200      220
 153.5600      218
 153.6000      228
 153.6400      238
 153.6800      243
 153.7200      249
 153.7600      311
 153.8000      283
 153.8400      269
 153.8800      274
 153.9200      309
 153.9600      282
 154.0000      284
 154.0400      359
 154.0800      329
 154.1200      332
 154.1600      312
 154.2000      338
 154.2400      311
 154.2800      393
 154.3200      387
 154.3600      403
 154.4000      394
 154.4400      391
 154.4800      412
 154.5200      384
 154.5600      367
 154.6000      394
 154.6400      438
 154.6800      435
 154.7200      424
 154.7600      457
 154.8000      374
 154.8400      437
 154.8800      426
 154.9200      417
 154.9600      390
 155.0000      427
 155.0400      417
 155.0800      441
 155.1200      457
 155.1600      468
 155.2000      435
 155.2400      427
 155.2800      427
 155.3200      461
 155.3600      436
 155.4000      424
 155.4400      450
 155.4800      432
 155.5200      455
 155.5600      434
 155.6000      402
 155.6400      439
 155.6800      420
 155.7200      392
 155.7600      381
 155.8000      386
 155.8400      399
 155.8800      356
 155.9200      399
 155.9600      376
 156.0000      400
 156.0400      331
 156.0800      380
 156.1200      324
 156.1600      343
 156.2000      342
 156.2400      310
 156.2800      352
 156.3200      313
 156.3600      302
 156.4000      315
 156.4400      293
 156.4800      277
 156.5200      287
 156.5600      249
 156.6000      260
 156.6400      279
 156.6800      264
 156.7200      248
 156.7600      274
 156.8000      246
 156.8400      250
 156.8800      249
 156.9200      210
 156.9600      207
 157.0000      211
 157.0400      199
 157.0800      189
 157.1200      164
 157.1600      181
 157.2000      190
 157.2400      181
 157.2800      189
 157.3200      182
 157.3600      165
 157.4000      175
 157.4400      172
 157.4800      179
 157.5200      177
 157.5600      142
 157.6000      159
 157.6400      153
 157.6800      147
 157.7200      153
 157.7600      135
 157.8000      140
 157.8400      121
 157.8800      143
 157.9200      128
 157.9600      132
 158.0000      144
 158.0400      126
 158.0800      128
 158.1200      110
 158.1600      132
 158.2000      122
 158.2400      114
 158.2800      100
 158.3200      111
 158.3600      106
 158.4000      115
 158.4400      122
 158.4800      114
 158.5200      107
 158.5600      102
 158.6000      114
 158.6400      102
 158.6800      106
 158.7200       88
 158.7600       99
 158.8000      108
 158.8400      101
 158.8800      108
 158.9200       94
 158.9600       78
 159.0000       91
 159.0400       99
 159.0800       90
 159.1200       95
 159.1600       81
 159.2000       90
 159.2400      107
 159.2800       67
 159.3200      100
 159.3600       87
 159.4000       59
 159.4400       74
 159.4800       92
 159.5200       80
 159.5600       83
 159.6000       81
 159.6400       80
 159.6800       79
 159.7200       74
 159.7600       67
 159.8000       78
 159.8400       93
 159.8800       73
 159.9200       93
 159.9600       89
 160.0000       70

File: SDD_sample_name_001_Psi-45_20180528-025309.txt
 150.0000       56
 150.0400       77
 150.0800       52
 150.1200       66
 150.1600       69
 150.2000       56
 150.2400       69
 150.2800       59
 150.3200       60
 150.3600       63
 150.4000       75
 150.4400       72
 150.4800       66
 150.5200       64
 150.5600       60
 150.6000       69
 150.6400       63
 150.6800       67
 150.7200       64
 150.7600       60
 150.8000       77
 150.8400       73
 150.8800       70
 150.9200       70
 150.9600       70
 151.0000       71
 151.0400       70
 151.0800       70
 151.1200       70
 151.1600       64
 151.2000       52
 151.2400       72
 151.2800       75
 151.3200       63
 151.3600       81
 151.4000       71
 151.4400       83
 151.4800       80
 151.5200       74
 151.5600       84
 151.6000       59
 151.6400       90
 151.6800       68
 151.7200       67
 151.7600       78
 151.8000       87
 151.8400      101
 151.8800       86
 151.9200       98
 151.9600       88
 152.0000       97
 152.0400       85
 152.0800       92
 152.1200       96
 152.1600       84
 152.2000       92
 152.2400       93
 152.2800       93
 152.3200      103
 152.3600       94
 152.4000      122
 152.4400      123
 152.4800      122
 152.5200      103
 152.5600      105
 152.6000      107
 152.6400      108
 152.6800      111
 152.7200      114
 152.7600      116
 152.8000      126
 152.8400      113
 152.8800      144
 152.9200      145
 152.9600      141
 153.0000      149
 153.0400      121
 153.0800      132
 153.1200      147
 153.1600      147
 153.2000      141
 153.2400      135
 153.2800      140
 153.3200      168
 153.3600      162
 153.4000      160
 153.4400      168
 153.4800      166
 153.5200      190
 153.5600      177
 153.6000      209
 153.6400      200
 153.6800      189
 153.7200      200
 153.7600      202
 153.8000      222
 153.8400      233
 153.8800      222
 153.9200      233
 153.9600      223
 154.0000      230
 154.0400      251
 154.0800      257
 154.1200      283
 154.1600      294
 154.2000      290
 154.2400      277
 154.2800      271
 154.3200      318
 154.3600      285
 154.4000      278
 154.4400      307
 154.4800      280
 154.5200      325
 154.5600      348
 154.6000      332
 154.6400      371
 154.6800      348
 154.7200      354
 154.7600      382
 154.8000      398
 154.8400      364
 154.8800      400
 154.9200      385
 154.9600      396
 155.0000      369
 155.0400      401
 155.0800      394
 155.1200      393
 155.1600      431
 155.2000      383
 155.2400      398
 155.2800      403
 155.3200      417
 155.3600      417
 155.4000      437
 155.4400      383
 155.4800      385
 155.5200      416
 155.5600      416
 155.6000      407
 155.6400      429
 155.6800      451
 155.7200      407
 155.7600      424
 155.8000      375
 155.8400      438
 155.8800      370
 155.9200      408
 155.9600      372
 156.0000      396
 156.0400      369
 156.0800      370
 156.1200      360
 156.1600      386
 156.2000      362
 156.2400      341
 156.2800      329
 156.3200      342
 156.3600      344
 156.4000      333
 156.4400      328
 156.4800      275
 156.5200      305
 156.5600      307
 156.6000      300
 156.6400      293
 156.6800      293
 156.7200      296
 156.7600      308
 156.8000      283
 156.8400      251
 156.8800      261
 156.9200      258
 156.9600      249
 157.0000      241
 157.0400      244
 157.0800      216
 157.1200      239
 157.1600      236
 157.2000      232
 157.2400      227
 157.2800      230
 157.3200      222
 157.3600      208
 157.4000      179
 157.4400      227
 157.4800      177
 157.5200      187
 157.5600      170
 157.6000      193
 157.6400      172
 157.6800      225
 157.7200      156
 157.7600      177
 157.8000      179
 157.8400      163
 157.8800      155
 157.9200      163
 157.9600      145
 158.0000      127
 158.0400      153
 158.0800      140
 158.1200      132
 158.1600      159
 158.2000      139
 158.2400      130
 158.2800      140
 158.3200      125
 158.3600      147
 158.4000      136
 158.4400      124
 158.4800      143
 158.5200      124
 158.5600      109
 158.6000      100
 158.6400      126
 158.6800      116
 158.7200      119
 158.7600      110
 158.8000       88
 158.8400       93
 158.8800      113
 158.9200      110
 158.9600      115
 159.0000      102
 159.0400       93
 159.0800      114
 159.1200      106
 159.1600       79
 159.2000      115
 159.2400      104
 159.2800      105
 159.3200       98
 159.3600       95
 159.4000       91
 159.4400       78
 159.4800      101
 159.5200       77
 159.5600       97
 159.6000       85
 159.6400       97
 159.6800       80
 159.7200       87
 159.7600       97
 159.8000       98
 159.8400       85
 159.8800       71
 159.9200       77
 159.9600       80
 160.0000       90

File: SDD_sample_name_001_Psi-45_20180528-050607.txt
 150.0000       68
 150.0400       73
 150.0800       58
 150.1200       58
 150.1600       62
 150.2000       66
 150.2400       61
 150.2800       54
 150.3200       76
 150.3600       71
 150.4000       66
 150.4400       54
 150.4800       69
 150.5200       61
 150.5600       76
 150.6000       78
 150.6400       62
 150.6800       65
 150.7200       65
 150.7600       79
 150.8000       70
 150.8400       82
 150.8800       80
 150.9200       68
 150.9600       65
 151.0000       59
 151.0400       79
 151.0800       71
 151.1200       83
 151.1600       72
 151.2000       73
 151.2400       91
 151.2800       73
 151.3200       71
 151.3600       62
 151.4000       79
 151.4400       81
 151.4800       71
 151.5200       84
 151.5600       71
 151.6000       75
 151.6400       77
 151.6800       83
 151.7200       91
 151.7600       92
 151.8000       88
 151.8400       91
 151.8800       77
 151.9200       78
 151.9600      100
 152.0000       76
 152.0400       89
 152.0800      102
 152.1200       92
 152.1600      101
 152.2000      106
 152.2400      106
 152.2800      105
 152.3200      106
 152.3600      100
 152.4000      104
 152.4400      112
 152.4800      112
 152.5200      127
 152.5600      120
 152.6000      106
 152.6400      106
 152.6800      122
 152.7200      116
 152.7600      135
 152.8000      143
 152.8400      123
 152.8800      123
 152.9200      130
 152.9600      137
 153.0000      130
 153.0400      142
 153.0800      110
 153.1200      152
 153.1600      143
 153.2000      151
 153.2400      169
 153.2800      151
 153.3200      153
 153.3600      166
 153.4000      187
 153.4400      176
 153.4800      169
 153.5200      173
 153.5600      196
 153.6000      216
 153.6400      197
 153.6800      180
 153.7200      193
 153.7600      202
 153.8000      193
 153.8400      236
 153.8800      208
 153.9200      224
 153.9600      219
 154.0000      255
 154.0400      252
 154.0800      260
 154.1200      251
 154.1600      275
 154.2000      286
 154.2400      279
 154.2800      282
 154.3200      317
 154.3600      288
 154.4000      315
 154.4400      308
 154.4800      322
 154.5200      316
 154.5600      305
 154.6000      371
 154.6400      335
 154.6800      347
 154.7200      360
 154.7600      399
 154.8000      357
 154.8400      360
 154.8800      387
 154.9200      389
 154.9600      388
 155.0000      383
 155.0400      389
 155.0800      384
 155.1200      396
 155.1600      364
 155.2000      396
 155.2400      413
 155.2800      441
 155.3200      388
 155.3600      414
 155.4000      430
 155.4400      393
 155.4800      392
 155.5200      421
 155.5600      403
 155.6000      374
 155.6400      432
 155.6800      379
 155.7200      377
 155.7600      391
 155.8000      409
 155.8400      366
 155.8800      433
 155.9200      416
 155.9600      386
 156.0000      367
 156.0400      381
 156.0800      380
 156.1200      359
 156.1600      370
 156.2000      334
 156.2400      368
 156.2800      362
 156.3200      337
 156.3600      344
 156.4000      346
 156.4400      331
 156.4800      303
 156.5200      322
 156.5600      313
 156.6000      272
 156.6400      282
 156.6800      251
 156.7200      283
 156.7600      276
 156.8000      283
 156.8400      283
 156.8800      257
 156.9200      217
 156.9600      259
 157.0000      248
 157.0400      243
 157.0800      231
 157.1200      230
 157.1600      227
 157.2000      220
 157.2400      229
 157.2800      211
 157.3200      211
 157.3600      210
 157.4000      197
 157.4400      181
 157.4800      225
 157.5200      176
 157.5600      198
 157.6000      168
 157.6400      175
 157.6800      167
 157.7200      169
 157.7600      167
 157.8000      172
 157.8400      161
 157.8800      177
 157.9200      158
 157.9600      143
 158.0000      157
 158.0400      165
 158.0800      147
 158.1200      138
 158.1600      143
 158.2000      150
 158.2400      121
 158.2800      142
 158.3200      140
 158.3600      140
 158.4000      118
 158.4400      116
 158.4800      116
 158.5200      122
 158.5600      128
 158.6000      115
 158.6400      129
 158.6800      117
 158.7200      106
 158.7600      115
 158.8000       99
 158.8400      127
 158.8800      115
 158.9200       97
 158.9600      116
 159.0000       96
 159.0400      103
 159.0800       95
 159.1200      103
 159.1600      106
 159.2000       87
 159.2400      107
 159.2800       92
 159.3200      111
 159.3600      104
 159.4000      108
 159.4400      105
 159.4800       96
 159.5200      100
 159.5600       93
 159.6000      104
 159.6400       91
 159.6800       96
 159.7200       71
 159.7600       74
 159.8000       91
 159.8400       99
 159.8800       80
 159.9200       79
 159.9600       81
 160.0000       81

File: SDD_sample_name_01234_Psi-0_20180527-115744.txt
 147.5000       52
 147.5200       56
 147.5400       44
 147.5600       38
 147.5800       69
 147.6000       60
 147.6200       45
 147.6400       44
 147.6600       40
 147.6800       50
 147.7000       64
 147.7200       53
 147.7400       50
 147.7600       59
 147.7800       52
 147.8000       62
 147.8200       55
 147.8400       41
 147.8600       45
 147.8800       48
 147.9000       44
 147.9200       45
 147.9400       51
 147.9600       54
 147.9800       46
 148.0000       56
 148.0200       51
 148.0400       60
 148.0600       50
 148.0800       52
 148.1000       47
 148.1200       50
 148.1400       48
 148.1600       54
 148.1800       61
 148.2000       45
 148.2200       56
 148.2400       43
 148.2600       51
 148.2800       62
 148.3000       58
 148.3200       44
 148.3400       48
 148.3600       72
 148.3800       52
 148.4000       59
 148.4200       58
 148.4400       53
 148.4600       55
 148.4800       67
 148.5000       71
 148.5200       48
 148.5400       51
 148.5600       44
 148.5800       54
 148.6000       47
 148.6200       70
 148.6400       56
 148.6600       58
 148.6800       52
 148.7000       63
 148.7200       64
 148.7400       43
 148.7600       54
 148.7800       52
 148.8000       68
 148.8200       36
 148.8400       58
 148.8600       54
 148.8800       58
 148.9000       49
 148.9200       60
 148.9400       55
 148.9600       53
 148.9800       51
 149.0000       44
 149.0200       52
 149.0400       55
 149.0600       64
 149.0800       60
 149.1000       67
 149.1200       61
 149.1400       48
 149.1600       46
 149.1800       65
 149.2000       66
 149.2200       51
 149.2400       80
 149.2600       59
 149.2800       62
 149.3000       52
 149.3200       57
 149.3400       48
 149.3600       41
 149.3800       55
 149.4000       65
 149.4200       62
 149.4400       77
 149.4600       59
 149.4800       60
 149.5000       49
 149.5200       51
 149.5400       60
 149.5600       54
 149.5800       52
 149.6000       59
 149.6200       58
 149.6400       62
 149.6600       61
 149.6800       62
 149.7000       58
 149.7200       63
 149.7400       70
 149.7600       60
 149.7800       68
 149.8000       61
 149.8200       65
 149.8400       69
 149.8600       74
 149.8800       60
 149.9000       73
 149.9200       62
 149.9400       53
 149.9600       60
 149.9800       62
 150.0000       63
 150.0200       69
 150.0400       75
 150.0600       60
 150.0800       64
 150.1000       72
 150.1200       73
 150.1400       57
 150.1600       64
 150.1800       57
 150.2000       73
 150.2200       71
 150.2400       60
 150.2600       64
 150.2800       59
 150.3000       70
 150.3200       58
 150.3400       69
 150.3600       69
 150.3800       68
 150.4000       76
 150.4200       67
 150.4400       66
 150.4600       66
 150.4800       59
 150.5000       53
 150.5200       80
 150.5400       57
 150.5600       65
 150.5800       79
 150.6000       76
 150.6200       78
 150.6400       82
 150.6600       60
 150.6800       69
 150.7000       88
 150.7200       68
 150.7400       80
 150.7600       62
 150.7800       78
 150.8000       71
 150.8200       72
 150.8400       84
 150.8600       69
 150.8800       82
 150.9000       78
 150.9200       87
 150.9400       85
 150.9600       79
 150.9800       66
 151.0000       82
 151.0200       83
 151.0400       86
 151.0600       79
 151.0800       90
 151.1000       87
 151.1200       87
 151.1400       85
 151.1600       85
 151.1800       67
 151.2000       88
 151.2200       81
 151.2400       84
 151.2600       98
 151.2800       80
 151.3000       86
 151.3200       92
 151.3400       79
 151.3600       97
 151.3800       93
 151.4000      100
 151.4200       85
 151.4400      105
 151.4600       79
 151.4800      102
 151.5000      102
 151.5200       97
 151.5400      110
 151.5600       88
 151.5800      102
 151.6000       99
 151.6200       99
 151.6400      100
 151.6600      102
 151.6800       95
 151.7000      104
 151.7200      118
 151.7400      101
 151.7600      121
 151.7800       94
 151.8000      105
 151.8200       97
 151.8400      107
 151.8600      111
 151.8800      100
 151.9000      120
 151.9200       91
 151.9400      109
 151.9600      112
 151.9800      113
 152.0000      138
 152.0200      120
 152.0400      121
 152.0600      108
 152.0800       96
 152.1000      121
 152.1200      131
 152.1400      135
 152.1600      141
 152.1800      115
 152.2000      145
 152.2200      139
 152.2400      143
 152.2600      134
 152.2800      134
 152.3000      114
 152.3200      138
 152.3400      139
 152.3600      110
 152.3800      115
 152.4000      158
 152.4200      154
 152.4400      157
 152.4600      129
 152.4800      142
 152.5000      174

File: SDD_sample_name_01234_Psi-0_20180527-123930.txt
 147.5000       45
 147.5200       54
 147.5400       54
 147.5600       56
 147.5800       56
 147.6000       45
 147.6200       56
 147.6400       53
 147.6600       42
 147.6800       55
 147.7000       50
 147.7200       60
 147.7400       40
 147.7600       59
 147.7800       66
 147.8000       55
 147.8200       42
 147.8400       64
 147.8600       52
 147.8800       53
 147.9000       53
 147.9200       57
 147.9400       55
 147.9600       48
 147.9800       45
 148.0000       47
 148.0200       74
 148.0400       50
 148.0600       42
 148.0800       41
 148.1000       61
 148.1200       60
 148.1400       64
 148.1600       39
 148.1800       55
 148.2000       67
 148.2200       51
 148.2400       65
 148.2600       52
 148.2800       56
 148.3000       65
 148.3200       58
 148.3400       59
 148.3600       59
 148.3800       52
 148.4000       54
 148.4200       49
 148.4400       56
 148.4600       44
 148.4800       58
 148.5000       57
 148.5200       58
 148.5400       55
 148.5600       59
 148.5800       47
 148.6000       47
 148.6200       59
 148.6400       51
 148.6600       62
 148.6800       46
 148.7000       49
 148.7200       66
 148.7400       64
 148.7600       69
 148.7800       55
 148.8000       54
 148.8200       54
 148.8400       62
 148.8600       43
 148.8800       63
 148.9000       70
 148.9200       55
 148.9400       66
 148.9600       49
 148.9800       56
 149.0000       56
 149.0200       47
 149.0400       58
 149.0600       70
 149.0800       67
 149.1000       54
 149.1200       59
 149.1400       57
 149.1600       69
 149.1800       57
 149.2000       84
 149.2200       50
 149.2400       66
 149.2600       68
 149.2800       92
 149.3000       50
 149.3200       47
 149.3400       65
 149.3600       57
 149.3800       56
 149.4000       61
 149.4200       60
 149.4400       66
 149.4600       53
 149.4800       55
 149.5000       55
 149.5200       68
 149.5400       61
 149.5600       59
 149.5800       69
 149.6000       61
 149.6200       54
 149.6400       74
 149.6600       57
 149.6800       61
 149.7000       68
 149.7200       56
 149.7400       68
 149.7600       69
 149.7800       64
 149.8000       57
 149.8200       65
 149.8400       67
 149.8600       79
 149.8800       62
 149.9000       56
 149.9200       65
 149.9400       76
 149.9600       75
 149.9800       68
 150.0000       66
 150.0200       59
 150.0400       71
 150.0600       72
 150.0800       64
 150.1000       51
 150.1200       63
 150.1400       66
 150.1600       69
 150.1800       52
 150.2000       77
 150.2200       65
 150.2400       68
 150.2600       62
 150.2800       70
 150.3000       57
 150.3200       62
 150.3400       72
 150.3600       50
 150.3800       65
 150.4000       48
 150.4200       62
 150.4400       54
 150.4600       64
 150.4800       74
 150.5000       67
 150.5200       79
 150.5400       84
 150.5600       63
 150.5800       74
 150.6000       74
 150.6200       50
 150.6400       77
 150.6600       73
 150.6800       73
 150.7000       78
 150.7200       76
 150.7400       87
 150.7600       75
 150.7800       67
 150.8000       70
 150.8200       76
 150.8400       69
 150.8600       70
 150.8800       84
 150.9000       80
 150.9200       78
 150.9400       80
 150.9600       82
 150.9800       81
 151.0000       86
 151.0200       78
 151.0400       63
 151.0600       78
 151.0800       75
 151.1000      102
 151.1200       80
 151.1400       81
 151.1600       67
 151.1800      105
 151.2000       94
 151.2200       87
 151.2400       92
 151.2600       96
 151.2800       90
 151.3000       85
 151.3200       85
 151.3400      106
 151.3600       92
 151.3800       94
 151.4000       79
 151.4200       80
 151.4400       84
 151.4600       98
 151.4800       84
 151.5000       88
 151.5200       77
 151.5400       73
 151.5600      103
 151.5800      100
 151.6000       89
 151.6200       92
 151.6400       99
 151.6600       92
 151.6800      108
 151.7000       85
 151.7200       99
 151.7400      108
 151.7600       95
 151.7800       99
 151.8000       97
 151.8200      123
 151.8400      106
 151.8600      107
 151.8800      115
 151.9000       95
 151.9200      102
 151.9400      106
 151.9600      102
 151.9800      136
 152.0000      124
 152.0200      128
 152.0400      136
 152.0600      114
 152.0800      115
 152.1000      111
 152.1200      116
 152.1400      146
 152.1600      134
 152.1800      122
 152.2000      111
 152.2200      128
 152.2400      145
 152.2600      129
 152.2800      137
 152.3000      137
 152.3200      136
 152.3400      142
 152.3600      142
 152.3800      154
 152.4000      138
 152.4200      153
 152.4400      126
 152.4600      144
 152.4800      172
 152.5000      139