Folder: xrd/XRD_Tool/XRD_Tool/bin/Debug (part 9)

File: LDA_sample_name_56789_Psi-15_20180622-205216.txt
127.2000      20
127.2800      19
127.3600      22
127.4400      73
127.5200      49
127.6000      17
127.6800      49
127.7600      10
127.8400      29
127.9200       8
128.0000      36
128.0800      19
128.1600      39
128.2400      22
128.3200      22
128.4000     -18
128.4800      47
128.5600      21
128.6400      13
128.7200      -6
128.8000      23
128.8800     -14
128.9600       4
129.0400      53
129.1200      -1
129.2000      33
129.2800      59
129.3600      62
129.4400      51
129.5200      23
129.6000      67
129.6800      33
129.7600      17
129.8400     -12
129.9200      -5
130.0000      67
130.0800      26
130.1600      -9
130.2400      15
130.3200      35
130.4000      49
130.4800      21
130.5600      13
130.6400      -7
130.7200      18
130.8000      54
130.8800      10
130.9600      -2
131.0400      36
131.1200      36
131.2000      19
131.2800      -5
131.3600      30
131.4400      44
131.5200      41
131.6000      39
131.6800       9
131.7600      61
131.8400      47
131.9200      24
132.0000      28
132.0800      20
132.1600      48
132.2400       0
132.3200      46
132.4000      80
132.4800      28
132.5600      10
132.6400      11
132.7200      48
132.8000      50
132.8800      40
132.9600      18
133.0400      29
133.1200      38
133.2000      17
133.2800      40
133.3600      48
133.4400      58
133.5200      56
133.6000      66
133.6800       2
133.7600      -9
133.8400      -1
133.9200      50
134.0000      32
134.0800      44
134.1600      56
134.2400      53
134.3200      56
134.4000      30
134.4800      24
134.5600      46
134.6400      37
134.7200       0
134.8000      33
134.8800      20
134.9600      47
135.0400      21
135.1200       9
135.2000      16
135.2800       9
135.3600      48
135.4400      38
135.5200      45
135.6000     -16
135.6800     -13
135.7600       2
135.8400      81
135.9200      27
136.0000      29
136.0800      61
136.1600      76
136.2400      44
136.3200      57
136.4000      21
136.4800      43
136.5600       9
136.6400       0
136.7200      33
136.8000      34
136.8800       8
136.9600      38
137.0400      36
137.1200      37
137.2000      33
137.2800      41
137.3600      73
137.4400      25
137.5200      -1
137.6000      57
137.6800      43
137.7600      24
137.8400      41
137.9200      41
138.0000      37
138.0800      44
138.1600      44
138.2400      22
138.3200      23
138.4000      22
138.4800      -4
138.5600      12
138.6400      35
138.7200      43
138.8000      48
138.8800      47
138.9600      34
139.0400      32
139.1200      69
139.2000      33
139.2800      42
139.3600      54
139.4400      71
139.5200      46
139.6000      61
139.6800      29
139.7600      81
139.8400      22
139.9200      29
140.0000      27
140.0800      19
140.1600      27
140.2400      72
140.3200      22
140.4000      69
140.4800      25
140.5600      35
140.6400      32
140.7200      44
140.8000      57
140.8800      20
140.9600      12
141.0400      36
141.1200      46
141.2000      64
141.2800      36
141.3600      38
141.4400      13
141.5200      18
141.6000      24
141.6800      29
141.7600      98
141.8400       1
141.9200      19
142.0000      47
142.0800      64
142.1600      35
142.2400      49
142.3200      39
142.4000      30
142.4800      43
142.5600      39
142.6400      19
142.7200      17
142.8000      36
142.8800      20
142.9600      18
143.0400      30
143.1200      53
143.2000      18
143.2800       9
143.3600      28
143.4400      35
143.5200      51
143.6000      79
143.6800      17
143.7600       8
143.8400      44
143.9200      30
144.0000      48
144.0800       0
144.1600      53
144.2400       9
144.3200      68
144.4000      36
144.4800      25
144.5600      38
144.6400      61
144.7200      11
144.8000      36
144.8800      69
144.9600      67
145.0400      52
145.1200      37
145.2000      18
145.2800       6
145.3600      24
145.4400      58
145.5200      63
145.6000      48
145.6800      52
145.7600       9
145.8400      41
145.9200      10
146.0000      24
146.0800      51
146.1600      34
146.2400      39
146.3200      37
146.4000      10
146.4800      63
146.5600      78
146.6400      27
146.7200      26
146.8000      67
146.8800      68
146.9600       9
147.0400      24
147.1200      27
147.2000      33
147.2800      54
147.3600      56
147.4400       0
147.5200      45
147.6000      25
147.6800      43
147.7600      14
147.8400      64
147.9200      81
148.0000      22
148.0800      12
148.1600       6
148.2400       7
148.3200      39
148.4000      32
148.4800      59
148.5600      81
148.6400      28
148.7200      52
148.8000      40
148.8800      48
148.9600      89
149.0400      70
149.1200      15
149.2000      66
149.2800      79
149.3600      73
149.4400      13
149.5200      68
149.6000      18
149.6800      42
149.7600      59
149.8400      45
149.9200      55
150.0000      45
150.0800      78
150.1600      57
150.2400      80
150.3200      42
150.4000      13
150.4800      33
150.5600      67
150.6400      65
150.7200      80
150.8000      67
150.8800      41
150.9600      55
151.0400      52
151.1200      36
151.1600      -6

File: LDA_sample_name_56789_Psi-15_20180622-205754.txt
127.2000      39
127.2800      41
127.3600      37
127.4400      37
127.5200      11
127.6000       0
127.6800      25
127.7600      72
127.8400      49
127.9200      36
128.0000      46
128.0800       3
128.1600      64
128.2400      54
128.3200      38
128.4000      43
128.4800      19
128.5600      44
128.6400      36
128.7200      13
128.8000      58
128.8800      29
128.9600      25
129.0400      92
129.1200      55
129.2000      40
129.2800      75
129.3600      21
129.4400     103
129.5200      47
129.6000      54
129.6800      47
129.7600      30
129.8400      34
129.9200      24
130.0000      47
130.0800      38
130.1600      45
130.2400      98
130.3200       3
130.4000      51
130.4800      72
130.5600      36
130.6400      87
130.7200      59
130.8000      45
130.8800      50
130.9600      33
131.0400      16
131.1200      62
131.2000      71
131.2800      73
131.3600      23
131.4400      59
131.5200      55
131.6000      14
131.6800      25
131.7600      29
131.8400      42
131.9200      69
132.0000      43
132.0800      60
132.1600      14
132.2400      61
132.3200      88
132.4000      33
132.4800      27
132.5600      43
132.6400      31
132.7200      56
132.8000      40
132.8800      32
132.9600      27
133.0400      92
133.1200      56
133.2000      11
133.2800      34
133.3600      39
133.4400      45
133.5200      35
133.6000      51
133.6800      79
133.7600      52
133.8400      83
133.9200      48
134.0000     105
134.0800      40
134.1600      62
134.2400      26
134.3200      73
134.4000      35
134.4800      62
134.5600      65
134.6400      17
134.7200      74
134.8000      17
134.8800      71
134.9600      46
135.0400      50
135.1200      41
135.2000     -16
135.2800      28
135.3600       5
135.4400      83
135.5200      87
135.6000      41
135.6800      70
135.7600      54
135.8400      10
135.9200      80
136.0000      48
136.0800      52
136.1600      15
136.2400      60
136.3200      66
136.4000      45
136.4800      98
136.5600      64
136.6400      20
136.7200      84
136.8000      52
136.8800      28
136.9600      77
137.0400      55
137.1200      41
137.2000      76
137.2800      92
137.3600      53
137.4400      26
137.5200      48
137.6000      50
137.6800     111
137.7600      77
137.8400      82
137.9200      27
138.0000      34
138.0800      62
138.1600      55
138.2400      53
138.3200      88
138.4000      48
138.4800      63
138.5600      54
138.6400      56
138.7200      63
138.8000      62
138.8800       0
138.9600      31
139.0400      68
139.1200      58
139.2000      88
139.2800      55
139.3600      35
139.4400      46
139.5200      43
139.6000      75
139.6800      50
139.7600      69
139.8400      47
139.9200      50
140.0000      53
140.0800      60
140.1600      46
140.2400      27
140.3200      26
140.4000      57
140.4800      50
140.5600      45
140.6400      43
140.7200      49
140.8000      52
140.8800      67
140.9600      89
141.0400      81
141.1200      61
141.2000      27
141.2800      77
141.3600      44
141.4400      35
141.5200      22
141.6000      24
141.6800       6
141.7600      67
141.8400      63
141.9200      28
142.0000      76
142.0800      48
142.1600      57
142.2400      10
142.3200      81
142.4000     100
142.4800      17
142.5600      50
142.6400      83
142.7200      72
142.8000      33
142.8800      18
142.9600      56
143.0400      44
143.1200      87
143.2000      66
143.2800      73
143.3600      -5
143.4400      25
143.5200      24
143.6000      47
143.6800      27
143.7600      43
143.8400      47
143.9200      88
144.0000      41
144.0800      43
144.1600      58
144.2400      81
144.3200      38
144.4000      47
144.4800      67
144.5600      58
144.6400      68
144.7200      99
144.8000      31
144.8800      12
144.9600      52
145.0400      71
145.1200     126
145.2000     116
145.2800      99
145.3600      32
145.4400      14
145.5200      37
145.6000      58
145.6800      47
145.7600      26
145.8400      51
145.9200      45
146.0000      70
146.0800      39
146.1600      24
146.2400      28
146.3200      12
146.4000     100
146.4800      84
146.5600      16
146.6400      61
146.7200      58
146.8000      37
146.8800      38
146.9600      90
147.0400      82
147.1200      24
147.2000      90
147.2800      53
147.3600      15
147.4400      87
147.5200      82
147.6000      30
147.6800      18
147.7600      29
147.8400      59
147.9200      35
148.0000      69
148.0800      90
148.1600      42
148.2400      61
148.3200      48
148.4000      70
148.4800      54
148.5600      56
148.6400      48
148.7200      92
148.8000      47
148.8800      41
148.9600      38
149.0400      57
149.1200      60
149.2000      54
149.2800      50
149.3600      22
149.4400      54
149.5200      40
149.6000      59
149.6800      77
149.7600      65
149.8400      22
149.9200      49
150.0000      43
150.0800     104
150.1600      67
150.2400      83
150.3200      87
150.4000      63
150.4800      96
150.5600      80
150.6400      98
150.7200      96
150.8000      87
150.8800      46
150.9600      69
151.0400      87
151.1200     127
151.1600     104

File: LDA_sample_name_56789_Psi-15_20180622-213809.txt
137.2000     344
137.2800     190
137.3600     279
137.4400     327
137.5200     179
137.6000     329
137.6800     273
137.7600     202
137.8400     259
137.9200     251
138.0000     282
138.0800     228
138.1600     274
138.2400     199
138.3200     238
138.4000     251
138.4800     302
138.5600     281
138.6400     285
138.7200     266
138.8000     181
138.8800     327
138.9600     228
139.0400     180
139.1200     261
139.2000     231
139.2800     237
139.3600     276
139.4400     320
139.5200     251
139.6000     278
139.6800     187
139.7600     317
139.8400     246
139.9200     206
140.0000     300
140.0800     274
140.1600     277
140.2400     186
140.3200     330
140.4000     351
140.4800     260
140.5600     347
140.6400     294
140.7200     283
140.8000     185
140.8800     290
140.9600     212
141.0400     245
141.1200     273
141.2000     291
141.2800     232
141.3600     271
141.4400     319
141.5200     332
141.6000     338
141.6800     306
141.7600     231
141.8400     350
141.9200     253
142.0000     316
142.0800     304
142.1600     255
142.2400     260
142.3200     263
142.4000     179
142.4800     325
142.5600     276
142.6400     261
142.7200     338
142.8000     269
142.8800     410
142.9600     287
143.0400     191
143.1200     301
143.2000     434
143.2800     339
143.3600     370
143.4400     289
143.5200     374
143.6000     332
143.6800     414
143.7600     198
143.8400     300
143.9200     318
144.0000     379
144.0800     307
144.1600     318
144.2400     292
144.3200     294
144.4000     316
144.4800     401
144.5600     436
144.6400     374
144.7200     274
144.8000     349
144.8800     318
144.9600     272
145.0400     240
145.1200     365
145.2000     368
145.2800     268
145.3600     313
145.4400     215
145.5200     257
145.6000     394
145.6800     268
145.7600     258
145.8400     308
145.9200     335
146.0000     288
146.0800     384
146.1600     302
146.2400     384
146.3200     309
146.4000     335
146.4800     385
146.5600     347
146.6400     290
146.7200     421
146.8000     342
146.8800     381
146.9600     488
147.0400     394
147.1200     360
147.2000     366
147.2800     365
147.3600     373
147.4400     418
147.5200     366
147.6000     439
147.6800     276
147.7600     347
147.8400     483
147.9200     480
148.0000     381
148.0800     461
148.1600     419
148.2400     400
148.3200     355
148.4000     395
148.4800     404
148.5600     427
148.6400     343
148.7200     450
148.8000     504
148.8800     473
148.9600     523
149.0400     433
149.1200     389
149.2000     483
149.2800     467
149.3600     446
149.4400     511
149.5200     491
149.6000     481
149.6800     555
149.7600     530
149.8400     578
149.9200     648
150.0000     492
150.0800     611
150.1600     641
150.2400     554
150.3200     601
150.4000     575
150.4800     719
150.5600     733
150.6400     752
150.7200     722
150.8000     808
150.8800     863
150.9600     662
151.0400     808
151.1200     921
151.2000    1028
151.2800     902
151.3600     943
151.4400    1177
151.5200    1178
151.6000    1071
151.6800    1169
151.7600    1280
151.8400    1356
151.9200    1586
152.0000    1447
152.0800    1748
152.1600    1847
152.2400    1854
152.3200    1796
152.4000    2028
152.4800    2032
152.5600    2181
152.6400    2178
152.7200    2161
152.8000    2489
152.8800    2366
152.9600    2640
153.0400    2500
153.1200    2638
153.2000    2554
153.2800    2542
153.3600    2696
153.4400    2643
153.5200    2660
153.6000    2648
153.6800    2746
153.7600    2640
153.8400    2459
153.9200    2476
154.0000    2415
154.0800    2175
154.1600    2398
154.2400    2187
154.3200    2338
154.4000    2046
154.4800    2043
154.5600    1884
154.6400    1725
154.7200    1831
154.8000    1566
154.8800    1543
154.9600    1594
155.0400    1441
155.1200    1359
155.2000    1408
155.2800    1297
155.3600    1315
155.4400    1214
155.5200    1124
155.6000    1000
155.6800    1066
155.7600    1047
155.8400     913
155.9200     826
156.0000     757
156.0800     737
156.1600     755
156.2400     755
156.3200     864
156.4000     609
156.4800     689
156.5600     647
156.6400     705
156.7200     712
156.8000     608
156.8800     735
156.9600     637
157.0400     585
157.1200     650
157.2000     538
157.2800     616
157.3600     485
157.4400     495
157.5200     544
157.6000     497
157.6800     497
157.7600     598
157.8400     379
157.9200     420
158.0000     381
158.0800     516
158.1600     499
158.2400     532
158.3200     363
158.4000     471
158.4800     474
158.5600     474
158.6400     475
158.7200     498
158.8000     439
158.8800     349
158.9600     442
159.0400     410
159.1200     332
159.2000     418
159.2800     377
159.3600     433
159.4400     393
159.5200     370
159.6000     393
159.6800     350
159.7600     263
159.8400     374
159.9200     375
160.0000     285
160.0800     335
160.1600     298
160.2400     348
160.3200     268
160.4000     292
160.4800     359
160.5600     303
160.6400     341
160.7200     303
160.8000     284
160.8800     304
160.9600     314
161.0400     281
161.1200     341
161.1800     308

File: LDA_sample_name_56789_Psi-15_20180622-214052.txt
137.2000    1160
137.2800    1147
137.3600    1166
137.4400    1251
137.5200    1236
137.6000    1163
137.6800    1160
137.7600    1143
137.8400    1281
137.9200    1221
138.0000    1263
138.0800    1283
138.1600    1227
138.2400    1163
138.3200    1139
138.4000    1176
138.4800    1243
138.5600    1209
138.6400    1216
138.7200    1270
138.8000    1198
138.8800    1225
138.9600    1227
139.0400    1174
139.1200    1220
139.2000    1269
139.2800    1196
139.3600    1271
139.4400    1272
139.5200    1244
139.6000    1311
139.6800    1077
139.7600    1151
139.8400    1236
139.9200    1269
140.0000    1217
140.0800    1226
140.1600    1311
140.2400    1222
140.3200    1158
140.4000    1132
140.4800    1275
140.5600    1274
140.6400    1224
140.7200    1214
140.8000    1135
140.8800    1093
140.9600    1165
141.0400    1224
141.1200    1141
141.2000    1315
141.2800    1194
141.3600    1302
141.4400    1251
141.5200    1228
141.6000    1215
141.6800    1261
141.7600    1341
141.8400    1152
141.9200    1277
142.0000    1204
142.0800    1368
142.1600    1275
142.2400    1280
142.3200    1242
142.4000    1234
142.4800    1338
142.5600    1189
142.6400    1320
142.7200    1228
142.8000    1280
142.8800    1303
142.9600    1217
143.0400    1225
143.1200    1236
143.2000    1306
143.2800    1296
143.3600    1298
143.4400    1242
143.5200    1361
143.6000    1303
143.6800    1195
143.7600    1216
143.8400    1255
143.9200    1314
144.0000    1299
144.0800    1234
144.1600    1292
144.2400    1320
144.3200    1323
144.4000    1327
144.4800    1316
144.5600    1259
144.6400    1301
144.7200    1322
144.8000    1316
144.8800    1301
144.9600    1310
145.0400    1259
145.1200    1240
145.2000    1170
145.2800    1241
145.3600    1129
145.4400    1249
145.5200    1192
145.6000    1241
145.6800    1388
145.7600    1284
145.8400    1171
145.9200    1254
146.0000    1262
146.0800    1239
146.1600    1222
146.2400    1323
146.3200    1342
146.4000    1208
146.4800    1258
146.5600    1328
146.6400    1395
146.7200    1356
146.8000    1424
146.8800    1283
146.9600    1340
147.0400    1399
147.1200    1264
147.2000    1427
147.2800    1330
147.3600    1420
147.4400    1354
147.5200    1306
147.6000    1380
147.6800    1353
147.7600    1442
147.8400    1320
147.9200    1395
148.0000    1447
148.0800    1338
148.1600    1415
148.2400    1409
148.3200    1373
148.4000    1399
148.4800    1328
148.5600    1340
148.6400    1521
148.7200    1485
148.8000    1443
148.8800    1391
148.9600    1359
149.0400    1445
149.1200    1449
149.2000    1421
149.2800    1425
149.3600    1395
149.4400    1448
149.5200    1409
149.6000    1397
149.6800    1403
149.7600    1449
149.8400    1580
149.9200    1489
150.0000    1432
150.0800    1495
150.1600    1557
150.2400    1536
150.3200    1583
150.4000    1546
150.4800    1582
150.5600    1667
150.6400    1773
150.7200    1593
150.8000    1824
150.8800    1721
150.9600    1824
151.0400    1868
151.1200    1824
151.2000    1946
151.2800    1799
151.3600    1911
151.4400    1882
151.5200    2106
151.6000    2059
151.6800    2095
151.7600    2282
151.8400    2327
151.9200    2505
152.0000    2418
152.0800    2739
152.1600    2597
152.2400    2706
152.3200    2838
152.4000    2921
152.4800    2894
152.5600    3013
152.6400    3085
152.7200    3148
152.8000    3441
152.8800    3293
152.9600    3439
153.0400    3494
153.1200    3688
153.2000    3526
153.2800    3494
153.3600    3858
153.4400    3563
153.5200    3518
153.6000    3614
153.6800    3655
153.7600    3595
153.8400    3405
153.9200    3330
154.0000    3279
154.0800    3254
154.1600    3337
154.2400    3226
154.3200    3083
154.4000    2848
154.4800    2895
154.5600    2890
154.6400    2713
154.7200    2767
154.8000    2536
154.8800    2531
154.9600    2510
155.0400    2570
155.1200    2347
155.2000    2248
155.2800    2197
155.3600    2214
155.4400    2063
155.5200    2123
155.6000    2005
155.6800    1943
155.7600    1877
155.8400    1864
155.9200    1728
156.0000    1755
156.0800    1840
156.1600    1744
156.2400    1663
156.3200    1684
156.4000    1511
156.4800    1675
156.5600    1645
156.6400    1605
156.7200    1475
156.8000    1485
156.8800    1680
156.9600    1644
157.0400    1712
157.1200    1603
157.2000    1529
157.2800    1463
157.3600    1481
157.4400    1574
157.5200    1475
157.6000    1504
157.6800    1485
157.7600    1567
157.8400    1570
157.9200    1512
158.0000    1456
158.0800    1521
158.1600    1361
158.2400    1405
158.3200    1385
158.4000    1420
158.4800    1486
158.5600    1381
158.6400    1326
158.7200    1412
158.8000    1298
158.8800    1358
158.9600    1410
159.0400    1292
159.1200    1356
159.2000    1315
159.2800    1333
159.3600    1322
159.4400    1255
159.5200    1311
159.6000    1351
159.6800    1271
159.7600    1386
159.8400    1214
159.9200    1355
160.0000    1282
160.0800    1296
160.1600    1219
160.2400    1302
160.3200    1248
160.4000    1216
160.4800    1161
160.5600    1306
160.6400    1196
160.7200    1263
160.8000    1271
160.8800    1293
160.9600    1184
161.0400    1291
161.1200    1250
161.1800    1125

File: LDA_sample_name_56789_Psi-15_20180623-000554.txt
138.0000     194
138.0800     203
138.1600     246
138.2400     239
138.3200     293
138.4000     191
138.4800     326
138.5600     233
138.6400     199
138.7200     259
138.8000     258
138.8800     181
138.9600     200
139.0400     214
139.1200     255
139.2000     197
139.2800     258
139.3600     318
139.4400     177
139.5200     321
139.6000     253
139.6800     267
139.7600     234
139.8400     229
139.9200     316
140.0000     236
140.0800     156
140.1600     199
140.2400     241
140.3200     233
140.4000     239
140.4800     165
140.5600     213
140.6400     169
140.7200     166
140.8000     264
140.8800     323
140.9600     316
141.0400     256
141.1200     181
141.2000     291
141.2800     205
141.3600     258
141.4400     308
141.5200     217
141.6000     205
141.6800     276
141.7600     258
141.8400     301
141.9200     248
142.0000     295
142.0800     267
142.1600     222
142.2400     263
142.3200     265
142.4000     310
142.4800     312
142.5600     335
142.6400     242
142.7200     227
142.8000     357
142.8800     273
142.9600     329
143.0400     381
143.1200     283
143.2000     358
143.2800     272
143.3600     322
143.4400     263
143.5200     287
143.6000     297
143.6800     256
143.7600     312
143.8400     255
143.9200     221
144.0000     285
144.0800     345
144.1600     324
144.2400     302
144.3200     384
144.4000     217
144.4800     377
144.5600     350
144.6400     241
144.7200     215
144.8000     356
144.8800     303
144.9600     343
145.0400     360
145.1200     324
145.2000     365
145.2800     296
145.3600     363
145.4400     334
145.5200     349
145.6000     305
145.6800     253
145.7600     303
145.8400     328
145.9200     376
146.0000     298
146.0800     391
146.1600     383
146.2400     302
146.3200     286
146.4000     308
146.4800     428
146.5600     319
146.6400     272
146.7200     387
146.8000     383
146.8800     282
146.9600     327
147.0400     274
147.1200     352
147.2000     330
147.2800     268
147.3600     358
147.4400     399
147.5200     398
147.6000     359
147.6800     422
147.7600     331
147.8400     377
147.9200     341
148.0000     409
148.0800     320
148.1600     387
148.2400     367
148.3200     347
148.4000     345
148.4800     388
148.5600     500
148.6400     374
148.7200     358
148.8000     442
148.8800     298
148.9600     323
149.0400     353
149.1200     357
149.2000     372
149.2800     439
149.3600     363
149.4400     402
149.5200     450
149.6000     417
149.6800     441
149.7600     500
149.8400     447
149.9200     581
150.0000     483
150.0800     483
150.1600     552
150.2400     485
150.3200     582
150.4000     475
150.4800     617
150.5600     571
150.6400     484
150.7200     568
150.8000     512
150.8800     609
150.9600     526
151.0400     464
151.1200     503
151.2000     614
151.2800     544
151.3600     631
151.4400     751
151.5200     663
151.6000     792
151.6800     691
151.7600     834
151.8400     802
151.9200     787
152.0000     849
152.0800     987
152.1600     932
152.2400     947
152.3200     989
152.4000    1124
152.4800    1054
152.5600    1276
152.6400    1314
152.7200    1399
152.8000    1484
152.8800    1698
152.9600    1597
153.0400    1582
153.1200    1603
153.2000    1706
153.2800    1996
153.3600    1982
153.4400    2192
153.5200    2135
153.6000    2325
153.6800    2292
153.7600    2495
153.8400    2522
153.9200    2615
154.0000    2511
154.0800    2301
154.1600    2656
154.2400    2631
154.3200    2424
154.4000    2403
154.4800    2564
154.5600    2599
154.6400    2533
154.7200    2252
154.8000    2301
154.8800    2269
154.9600    2262
155.0400    2060
155.1200    1875
155.2000    2052
155.2800    2114
155.3600    1812
155.4400    1699
155.5200    1561
155.6000    1457
155.6800    1425
155.7600    1474
155.8400    1514
155.9200    1338
156.0000    1354
156.0800    1202
156.1600    1150
156.2400    1092
156.3200    1022
156.4000     980
156.4800     952
156.5600    1050
156.6400    1033
156.7200     861
156.8000     731
156.8800     895
156.9600     703
157.0400     778
157.1200     717
157.2000     738
157.2800     703
157.3600     669
157.4400     673
157.5200     659
157.6000     718
157.6800     638
157.7600     628
157.8400     647
157.9200     667
158.0000     666
158.0800     610
158.1600     580
158.2400     588
158.3200     604
158.4000     562
158.4800     599
158.5600     565
158.6400     568
158.7200     487
158.8000     464
158.8800     456
158.9600     434
159.0400     522
159.1200     589
159.2000     502
159.2800     566
159.3600     457
159.4400     383
159.5200     501
159.6000     436
159.6800     458
159.7600     410
159.8400     370
159.9200     292
160.0000     363
160.0800     458
160.1600     395
160.2400     350
160.3200     375
160.4000     417
160.4800     312
160.5600     478
160.6400     407
160.7200     421
160.8000     447
160.8800     409
160.9600     315
161.0400     359
161.1200     334
161.2000     288
161.2800     295
161.3600     393
161.4400     406
161.5200     240
161.6000     363
161.6800     391
161.7600     307
161.8400     345
161.9200     277
161.9800     354