Folder: xrd/XRD_Tool/XRD_Tool/bin/Debug (part 13)

File: LDA_sample_name_56789_Psi-30_20180603-122827.txt
128.0000     248
128.0800     269
128.1600     229
128.2400     241
128.3200     229
128.4000     283
128.4800     248
128.5600     247
128.6400     254
128.7200     266
128.8000     258
128.8800     244
128.9600     236
129.0400     252
129.1200     279
129.2000     234
129.2800     298
129.3600     270
129.4400     223
129.5200     231
129.6000     262
129.6800     249
129.7600     258
129.8400     224
129.9200     244
130.0000     260
130.0800     274
130.1600     226
130.2400     281
130.3200     243
130.4000     253
130.4800     268
130.5600     240
130.6400     255
130.7200     260
130.8000     225
130.8800     254
130.9600     251
131.0400     238
131.1200     276
131.2000     280
131.2800     254
131.3600     264
131.4400     247
131.5200     250
131.6000     238
131.6800     252
131.7600     247
131.8400     275
131.9200     274
132.0000     265
132.0800     263
132.1600     286
132.2400     309
132.3200     285
132.4000     271
132.4800     280
132.5600     300
132.6400     268
132.7200     276
132.8000     251
132.8800     284
132.9600     278
133.0400     260
133.1200     251
133.2000     261
133.2800     267
133.3600     268
133.4400     283
133.5200     275
133.6000     255
133.6800     267
133.7600     279
133.8400     268
133.9200     265
134.0000     268
134.0800     292
134.1600     255
134.2400     254
134.3200     279
134.4000     254
134.4800     253
134.5600     288
134.6400     268
134.7200     265
134.8000     246
134.8800     274
134.9600     287
135.0400     278
135.1200     261
135.2000     235
135.2800     269
135.3600     296
135.4400     288
135.5200     265
135.6000     256
135.6800     259
135.7600     269
135.8400     265
135.9200     257
136.0000     273
136.0800     274
136.1600     274
136.2400     266
136.3200     274
136.4000     268
136.4800     258
136.5600     258
136.6400     258
136.7200     247
136.8000     276
136.8800     259
136.9600     235
137.0400     252
137.1200     279
137.2000     242
137.2800     264
137.3600     270
137.4400     311
137.5200     298
137.6000     273
137.6800     288
137.7600     259
137.8400     308
137.9200     294
138.0000     277
138.0800     290
138.1600     283
138.2400     292
138.3200     263
138.4000     265
138.4800     305
138.5600     304
138.6400     262
138.7200     265
138.8000     278
138.8800     286
138.9600     288
139.0400     282
139.1200     267
139.2000     277
139.2800     270
139.3600     262
139.4400     279
139.5200     278
139.6000     292
139.6800     261
139.7600     292
139.8400     262
139.9200     296
140.0000     258
140.0800     280
140.1600     298
140.2400     272
140.3200     303
140.4000     280
140.4800     255
140.5600     271
140.6400     298
140.7200     277
140.8000     269
140.8800     269
140.9600     245
141.0400     295
141.1200     273
141.2000     279
141.2800     282
141.3600     256
141.4400     278
141.5200     274
141.6000     250
141.6800     275
141.7600     250
141.8400     262
141.9200     285
142.0000     288
142.0800     284
142.1600     283
142.2400     256
142.3200     265
142.4000     248
142.4800     306
142.5600     255
142.6400     283
142.7200     277
142.8000     269
142.8800     269
142.9600     310
143.0400     294
143.1200     282
143.2000     289
143.2800     269
143.3600     269
143.4400     271
143.5200     281
143.6000     285
143.6800     285
143.7600     252
143.8400     284
143.9200     277
144.0000     266
144.0800     235
144.1600     272
144.2400     281
144.3200     295
144.4000     280
144.4800     303
144.5600     300
144.6400     264
144.7200     270
144.8000     265
144.8800     262
144.9600     253
145.0400     271
145.1200     291
145.2000     239
145.2800     256
145.3600     265
145.4400     255
145.5200     275
145.6000     267
145.6800     248
145.7600     272
145.8400     262
145.9200     267
146.0000     292
146.0800     258
146.1600     278
146.2400     295
146.3200     263
146.4000     270
146.4800     296
146.5600     254
146.6400     272
146.7200     225
146.8000     260
146.8800     295
146.9600     254
147.0400     274
147.1200     269
147.2000     281
147.2800     288
147.3600     260
147.4400     253
147.5200     228
147.6000     259
147.6800     272
147.7600     299
147.8400     269
147.9200     260
148.0000     275
148.0800     276
148.1600     265
148.2400     288
148.3200     277
148.4000     275
148.4800     266
148.5600     269
148.6400     250
148.7200     301
148.8000     288
148.8800     301
148.9600     290
149.0400     270
149.1200     280
149.2000     278
149.2800     287
149.3600     286
149.4400     263
149.5200     290
149.6000     265
149.6800     270
149.7600     280
149.8400     298
149.9200     265
150.0000     281
150.0800     275
150.1600     283
150.2400     292
150.3200     260
150.4000     299
150.4800     268
150.5600     305
150.6400     271
150.7200     297
150.8000     297
150.8800     314
150.9600     297
151.0400     268
151.1200     278
151.2000     275
151.2800     321
151.3600     288
151.4400     289
151.5200     285
151.6000     287
151.6800     288
151.7600     293
151.8400     287
151.9200     287
151.9600     281

File: LDA_sample_name_56789_Psi-30_20180623-000613.txt
138.0000     198
138.0800     175
138.1600     190
138.2400     195
138.3200     211
138.4000     185
138.4800     138
138.5600     131
138.6400     248
138.7200     124
138.8000     138
138.8800     154
138.9600     243
139.0400     276
139.1200     262
139.2000     282
139.2800     297
139.3600     178
139.4400     252
139.5200     207
139.6000     288
139.6800     189
139.7600     300
139.8400     142
139.9200     211
140.0000     175
140.0800     204
140.1600     222
140.2400     252
140.3200     221
140.4000     217
140.4800     265
140.5600     214
140.6400     193
140.7200     181
140.8000     384
140.8800     220
140.9600     230
141.0400     164
141.1200     241
141.2000     286
141.2800     250
141.3600     283
141.4400     258
141.5200     241
141.6000     235
141.6800     304
141.7600     217
141.8400     234
141.9200     216
142.0000     295
142.0800     216
142.1600     343
142.2400     210
142.3200     213
142.4000     308
142.4800     332
142.5600     220
142.6400     271
142.7200     340
142.8000     326
142.8800     330
142.9600     157
143.0400     344
143.1200     320
143.2000     281
143.2800     281
143.3600     355
143.4400     301
143.5200     291
143.6000     343
143.6800     351
143.7600     255
143.8400     229
143.9200     222
144.0000     291
144.0800     300
144.1600     387
144.2400     374
144.3200     341
144.4000     289
144.4800     345
144.5600     270
144.6400     342
144.7200     348
144.8000     329
144.8800     309
144.9600     373
145.0400     281
145.1200     347
145.2000     331
145.2800     364
145.3600     309
145.4400     339
145.5200     368
145.6000     289
145.6800     341
145.7600     277
145.8400     361
145.9200     365
146.0000     322
146.0800     382
146.1600     332
146.2400     343
146.3200     403
146.4000     489
146.4800     346
146.5600     380
146.6400     280
146.7200     352
146.8000     386
146.8800     316
146.9600     268
147.0400     306
147.1200     363
147.2000     263
147.2800     434
147.3600     331
147.4400     438
147.5200     398
147.6000     380
147.6800     460
147.7600     290
147.8400     413
147.9200     378
148.0000     485
148.0800     415
148.1600     481
148.2400     455
148.3200     465
148.4000     398
148.4800     323
148.5600     376
148.6400     481
148.7200     411
148.8000     444
148.8800     536
148.9600     328
149.0400     444
149.1200     387
149.2000     404
149.2800     521
149.3600     402
149.4400     409
149.5200     454
149.6000     515
149.6800     487
149.7600     449
149.8400     435
149.9200     531
150.0000     428
150.0800     424
150.1600     474
150.2400     503
150.3200     481
150.4000     489
150.4800     510
150.5600     459
150.6400     511
150.7200     538
150.8000     556
150.8800     559
150.9600     504
151.0400     572
151.1200     500
151.2000     540
151.2800     586
151.3600     585
151.4400     613
151.5200     549
151.6000     611
151.6800     815
151.7600     719
151.8400     654
151.9200     729
152.0000     815
152.0800     668
152.1600     691
152.2400     864
152.3200     919
152.4000     914
152.4800    1001
152.5600     991
152.6400    1118
152.7200    1104
152.8000    1144
152.8800    1292
152.9600    1157
153.0400    1320
153.1200    1345
153.2000    1454
153.2800    1469
153.3600    1571
153.4400    1672
153.5200    1799
153.6000    1964
153.6800    1806
153.7600    1855
153.8400    2011
153.9200    1998
154.0000    2005
154.0800    2052
154.1600    2419
154.2400    2216
154.3200    2303
154.4000    2155
154.4800    2166
154.5600    2205
154.6400    2244
154.7200    2118
154.8000    2159
154.8800    2264
154.9600    2365
155.0400    2143
155.1200    2140
155.2000    1942
155.2800    1909
155.3600    2019
155.4400    1759
155.5200    1829
155.6000    1772
155.6800    1633
155.7600    1694
155.8400    1499
155.9200    1465
156.0000    1680
156.0800    1340
156.1600    1405
156.2400    1274
156.3200    1215
156.4000    1098
156.4800    1192
156.5600    1112
156.6400    1099
156.7200     951
156.8000     895
156.8800     993
156.9600     990
157.0400     934
157.1200     875
157.2000     821
157.2800     782
157.3600     714
157.4400     861
157.5200     650
157.6000     744
157.6800     831
157.7600     753
157.8400     648
157.9200     782
158.0000     687
158.0800     665
158.1600     731
158.2400     558
158.3200     604
158.4000     557
158.4800     625
158.5600     599
158.6400     672
158.7200     619
158.8000     571
158.8800     638
158.9600     610
159.0400     508
159.1200     585
159.2000     488
159.2800     571
159.3600     487
159.4400     461
159.5200     489
159.6000     472
159.6800     591
159.7600     521
159.8400     542
159.9200     476
160.0000     565
160.0800     523
160.1600     453
160.2400     469
160.3200     441
160.4000     526
160.4800     561
160.5600     525
160.6400     429
160.7200     507
160.8000     394
160.8800     510
160.9600     371
161.0400     459
161.1200     441
161.2000     432
161.2800     354
161.3600     397
161.4400     412
161.5200     461
161.6000     484
161.6800     373
161.7600     444
161.8400     469
161.9200     444
161.9800     450

File: LDA_sample_name_56789_Psi-33_20180603-095438.txt
155.0000   13330
155.1200   13330
155.2400   13330
155.3600   13330
155.4800   13330
155.6000   13330
155.7200   13330
155.8400   13330
155.9600   13330
156.0800   13330
156.2000   13330
156.3200   13330
156.4400   13330
156.5600   13330
156.6800   13330
156.8000   13330
156.9200   13330
157.0400   13330
157.1600   13330
157.2800   13330
157.4000   13330
157.5200   13330
157.6400   13330
157.7600   13330
157.8800   13330
158.0000   13330
158.1200   13330
158.2400   13330
158.3600   13330
158.4800   13330
158.6000   13330
158.7200   13330
158.8400   13330
158.9600   13330
159.0800   13330
159.2000   13330
159.3200   13330
159.4400   13330
159.5600   13330
159.6800   13330
159.8000   13330
159.9200   13330
160.0400   13330
160.1600   13330
160.2800   13330
160.4000   13330
160.5200   13330
160.6400   13330
160.7600   13330
160.8800   13330
161.0000   13330
161.1200   13330
161.2400   13330
161.3600   13330
161.4800   13330
161.6000   13330
161.7200   13330
161.8400   13330
161.9600   13330
162.0800   13330
162.2000   13330
162.3200   13330
162.4400   13330
162.5600   13330
162.6800   13330
162.8000   13330
162.9200   13330
163.0400   13330
163.1600   13330
163.2800   13330
163.4000   13330
163.5200   13330
163.6400   13330
163.7600   13330
163.8800   13330
164.0000   13330
164.1200   13330
164.2400   13330
164.3600   13330
164.4800   13330
164.6000   13330
164.7200   13330
164.8400   13330
164.9600   13330
165.0800   13330
165.2000   13330
165.3200   13330
165.4400   13330
165.5600   13330
165.6800   13330
165.8000   13330
165.9200   13330
166.0400   13330
166.1600   13330
166.2800   13330
166.4000   13330
166.5200   13330
166.6400   13330
166.7600   13330
166.8800   13330
167.0000   13330
167.1200   13330
167.2400   13330
167.3600   13330
167.4800   13330
167.6000   13330
167.7200   13330
167.8400   13330
167.9600   13330
168.0800   13330
168.2000   13330
168.3200   13330
168.4400   13330
168.5600   13330
168.6800   13330
168.8000   13330
168.9200   13330
169.0400   13330
169.1600   13330
169.2800   13330
169.4000   13330
169.5200   13330
169.6400   13330
169.7600   13330
169.8800   13330
170.0000   13330
170.1200   13330
170.2400   13330
170.3600   13330
170.4800   13330
170.6000   13330
170.7200   13330
170.8400   13330
170.9600   13330
171.0800   13330
171.2000   13330
171.3200   13330
171.4400   13330
171.5600   13330
171.6800   13330
171.8000   13330
171.9200   13330
172.0400   13330
172.1600   13330
172.2800   13330
172.4000   13330
172.5200   13330
172.6400   13330
172.7600   13330
172.8800   13330
173.0000   13330
173.1200   13330
173.2400   13330
173.3600   13330
173.4800   13330
173.6000   13330
173.7200   13330
173.8400   13330
173.9600   13330
174.0800   13330
174.2000   13330
174.3200   13330
174.4400   13330
174.5600   13330
174.6800   13330
174.8000   13330
174.9200   13330
175.0400   13330
175.1600   13330
175.2800   13330
175.4000   13330
175.5200   13330
175.6400   13330
175.7600   13330
175.8800   13330
176.0000   13330
176.1200   13330
176.2400   13330
176.3600   13330
176.4800   13330
176.6000   13330
176.7200   13330
176.8400   13330
176.9600   13330
177.0800   13330
177.2000   13330
177.3200   13330
177.4400   13330
177.5600   13330
177.6800   13330
177.8000   13330
177.9200   13330
178.0400   13330
178.1600   13330
178.2800   13330
178.4000   13330
178.5200   13330
178.6400   13330
178.7600   13330
178.8800   13330
179.0000   13330
179.1200   13330
179.2400   13330
179.3600   13330
179.4800   13330
179.6000   13330
179.7200   13330
179.8400   13330
179.9600   13330
180.0800   13330
180.2000   13330
180.3200   13330
180.4400   13330
180.5600   13330

File: LDA_sample_name_56789_Psi-35_20180622-235722.txt
138.0000     209
138.0800     322
138.1600     210
138.2400     303
138.3200     139
138.4000     168
138.4800     168
138.5600     276
138.6400     212
138.7200     200
138.8000     158
138.8800     203
138.9600     129
139.0400     239
139.1200     198
139.2000     240
139.2800     260
139.3600     279
139.4400     174
139.5200     254
139.6000     193
139.6800     307
139.7600     194
139.8400     220
139.9200     123
140.0000     227
140.0800     291
140.1600     247
140.2400     238
140.3200     234
140.4000     202
140.4800     166
140.5600     165
140.6400     283
140.7200     174
140.8000     223
140.8800     275
140.9600     297
141.0400     333
141.1200     192
141.2000     253
141.2800     273
141.3600     205
141.4400     158
141.5200     192
141.6000     229
141.6800     303
141.7600     256
141.8400     202
141.9200     156
142.0000     263
142.0800     295
142.1600     234
142.2400     279
142.3200     285
142.4000     304
142.4800     239
142.5600     280
142.6400     225
142.7200     267
142.8000     219
142.8800     226
142.9600     326
143.0400     350
143.1200     263
143.2000     282
143.2800     279
143.3600     254
143.4400     259
143.5200     238
143.6000     201
143.6800     264
143.7600     355
143.8400     265
143.9200     251
144.0000     327
144.0800     320
144.1600     298
144.2400     322
144.3200     274
144.4000     294
144.4800     231
144.5600     288
144.6400     378
144.7200     271
144.8000     279
144.8800     320
144.9600     346
145.0400     241
145.1200     262
145.2000     355
145.2800     249
145.3600     282
145.4400     266
145.5200     340
145.6000     316
145.6800     272
145.7600     180
145.8400     235
145.9200     252
146.0000     284
146.0800     239
146.1600     182
146.2400     224
146.3200     223
146.4000     290
146.4800     214
146.5600     281
146.6400     324
146.7200     267
146.8000     294
146.8800     261
146.9600     273
147.0400     334
147.1200     159
147.2000     313
147.2800     184
147.3600     341
147.4400     310
147.5200     237
147.6000     378
147.6800     383
147.7600     373
147.8400     341
147.9200     425
148.0000     439
148.0800     341
148.1600     328
148.2400     416
148.3200     342
148.4000     310
148.4800     432
148.5600     369
148.6400     384
148.7200     350
148.8000     330
148.8800     371
148.9600     369
149.0400     396
149.1200     336
149.2000     413
149.2800     389
149.3600     303
149.4400     357
149.5200     417
149.6000     334
149.6800     366
149.7600     470
149.8400     398
149.9200     376
150.0000     371
150.0800     399
150.1600     348
150.2400     455
150.3200     414
150.4000     430
150.4800     491
150.5600     403
150.6400     489
150.7200     429
150.8000     480
150.8800     517
150.9600     478
151.0400     478
151.1200     486
151.2000     604
151.2800     526
151.3600     568
151.4400     626
151.5200     378
151.6000     675
151.6800     652
151.7600     654
151.8400     690
151.9200     669
152.0000     676
152.0800     730
152.1600     847
152.2400     790
152.3200     880
152.4000     835
152.4800     910
152.5600     955
152.6400    1114
152.7200    1092
152.8000    1159
152.8800    1247
152.9600    1394
153.0400    1377
153.1200    1430
153.2000    1563
153.2800    1533
153.3600    1594
153.4400    1703
153.5200    1781
153.6000    1737
153.6800    1978
153.7600    1827
153.8400    2039
153.9200    1924
154.0000    2019
154.0800    1985
154.1600    2364
154.2400    2198
154.3200    2248
154.4000    2474
154.4800    2456
154.5600    2379
154.6400    2361
154.7200    2125
154.8000    2188
154.8800    2107
154.9600    2280
155.0400    2408
155.1200    2126
155.2000    2127
155.2800    2205
155.3600    2261
155.4400    2010
155.5200    2068
155.6000    1721
155.6800    1702
155.7600    1761
155.8400    1725
155.9200    1465
156.0000    1418
156.0800    1505
156.1600    1324
156.2400    1314
156.3200    1292
156.4000    1192
156.4800    1291
156.5600    1144
156.6400    1114
156.7200    1097
156.8000     996
156.8800     712
156.9600     835
157.0400     836
157.1200     758
157.2000     797
157.2800     953
157.3600     777
157.4400     741
157.5200     714
157.6000     661
157.6800     600
157.7600     721
157.8400     691
157.9200     648
158.0000     625
158.0800     483
158.1600     543
158.2400     502
158.3200     556
158.4000     485
158.4800     536
158.5600     613
158.6400     562
158.7200     504
158.8000     378
158.8800     520
158.9600     460
159.0400     494
159.1200     412
159.2000     351
159.2800     472
159.3600     440
159.4400     451
159.5200     311
159.6000     352
159.6800     307
159.7600     306
159.8400     460
159.9200     333
160.0000     289
160.0800     407
160.1600     494
160.2400     322
160.3200     356
160.4000     312
160.4800     282
160.5600     299
160.6400     302
160.7200     337
160.8000     293
160.8800     327
160.9600     327
161.0400     333
161.1200     322
161.2000     317
161.2800     233
161.3600     305
161.4400     256
161.5200     283
161.6000     298
161.6800     208
161.7600     276
161.8400     265
161.9200     262
161.9800     273

File: LDA_sample_name_56789_Psi-35_20180622-235834.txt
141.0000     240
141.0800     167
141.1600     184
141.2400     194
141.3200     242
141.4000     129
141.4800     294
141.5600     168
141.6400     334
141.7200     236
141.8000     239
141.8800     260
141.9600     110
142.0400     255
142.1200     193
142.2000     337
142.2800     181
142.3600     145
142.4400     267
142.5200     230
142.6000     235
142.6800     202
142.7600     236
142.8400     188
142.9200     255
143.0000     176
143.0800     208
143.1600     250
143.2400     134
143.3200     308
143.4000     190
143.4800     193
143.5600     288
143.6400     158
143.7200     171
143.8000     213
143.8800     227
143.9600     321
144.0400     244
144.1200     270
144.2000     220
144.2800     260
144.3600     158
144.4400     248
144.5200     166
144.6000     221
144.6800     249
144.7600     253
144.8400     168
144.9200     286
145.0000     347
145.0800     317
145.1600     297
145.2400     312
145.3200     317
145.4000     403
145.4800     253
145.5600     303
145.6400     286
145.7200     346
145.8000     363
145.8800     375
145.9600     313
146.0400     285
146.1200     380
146.2000     343
146.2800     351
146.3600     274
146.4400     317
146.5200     237
146.6000     320
146.6800     267
146.7600     298
146.8400     354
146.9200     304
147.0000     305
147.0800     338
147.1600     242
147.2400     323
147.3200     355
147.4000     324
147.4800     358
147.5600     281
147.6400     296
147.7200     295
147.8000     300
147.8800     392
147.9600     354
148.0400     267
148.1200     351
148.2000     402
148.2800     299
148.3600     259
148.4400     430
148.5200     322
148.6000     404
148.6800     353
148.7600     321
148.8400     340
148.9200     245
149.0000     376
149.0800     288
149.1600     346
149.2400     257
149.3200     354
149.4000     310
149.4800     323
149.5600     359
149.6400     381
149.7200     364
149.8000     360
149.8800     390
149.9600     339
150.0400     335
150.1200     411
150.2000     336
150.2800     434
150.3600     352
150.4400     533
150.5200     497
150.6000     395
150.6800     517
150.7600     520
150.8400     603
150.9200     514
151.0000     562
151.0800     586
151.1600     659
151.2400     532
151.3200     566
151.4000     532
151.4800     536
151.5600     599
151.6400     574
151.7200     611
151.8000     633
151.8800     635
151.9600     769
152.0400     744
152.1200     788
152.2000     751
152.2800     845
152.3600     793
152.4400     775
152.5200     981
152.6000     943
152.6800     951
152.7600    1178
152.8400    1176
152.9200    1215
153.0000    1176
153.0800    1404
153.1600    1467
153.2400    1485
153.3200    1622
153.4000    1533
153.4800    1790
153.5600    1769
153.6400    1886
153.7200    1976
153.8000    1885
153.8800    2028
153.9600    1999
154.0400    2104
154.1200    2260
154.2000    2363
154.2800    2297
154.3600    2459
154.4400    2514
154.5200    2518
154.6000    2418
154.6800    2564
154.7600    2421
154.8400    2197
154.9200    2272
155.0000    2292
155.0800    2233
155.1600    2112
155.2400    2055
155.3200    2153
155.4000    1995
155.4800    2036
155.5600    2026
155.6400    2057
155.7200    2010
155.8000    1896
155.8800    1934
155.9600    1556
156.0400    1524
156.1200    1547
156.2000    1519
156.2800    1301
156.3600    1351
156.4400    1339
156.5200    1234
156.6000    1273
156.6800    1189
156.7600    1145
156.8400     965
156.9200     912
157.0000     920
157.0800    1022
157.1600     851
157.2400     808
157.3200     925
157.4000     779
157.4800     715
157.5600     792
157.6400     571
157.7200     568
157.8000     704
157.8800     688
157.9600     614
158.0400     602
158.1200     557
158.2000     623
158.2800     473
158.3600     720
158.4400     533
158.5200     504
158.6000     508
158.6800     481
158.7600     481
158.8400     458
158.9200     418
159.0000     515
159.0800     501
159.1600     471
159.2400     452
159.3200     470
159.4000     432
159.4800     460
159.5600     431
159.6400     385
159.7200     487
159.8000     404
159.8800     429
159.9600     369
160.0400     444
160.1200     330
160.2000     426
160.2800     511
160.3600     262
160.4400     399
160.5200     312
160.6000     336
160.6800     459
160.7600     421
160.8400     402
160.9200     455
161.0000     389
161.0800     397
161.1600     360
161.2400     384
161.3200     345
161.4000     315
161.4800     275
161.5600     345
161.6400     396
161.7200     269
161.8000     281
161.8800     310
161.9600     338
162.0400     303
162.1200     282
162.2000     276
162.2800     329
162.3600     312
162.4400     265
162.5200     284
162.6000     241
162.6800     261
162.7600     328
162.8400     332
162.9200     344
163.0000     285
163.0800     296
163.1600     401
163.2400     275
163.3200     306
163.4000     355
163.4800     303
163.5600     376
163.6400     295
163.7200     305
163.8000     248
163.8800     299
163.9600     200
164.0400     244
164.1200     255
164.2000     221
164.2800     304
164.3600     267
164.4400     188
164.5200     209
164.6000     263
164.6800     237
164.7600     210
164.8400     234
164.9200     242
164.9800     280