Folder: xrd/XRD_Tool/XRD_Tool/bin/Debug (part 23)

File: SDD_sample_name_01234_Psi-15_20180602-101230.txt
 145.0000       40
 145.0400       37
 145.0800       37
 145.1200       30
 145.1600       32
 145.2000       38
 145.2400       26
 145.2800       38
 145.3200       54
 145.3600       43
 145.4000       38
 145.4400       42
 145.4800       40
 145.5200       38
 145.5600       44
 145.6000       42
 145.6400       40
 145.6800       41
 145.7200       41
 145.7600       40
 145.8000       42
 145.8400       34
 145.8800       41
 145.9200       45
 145.9600       38
 146.0000       45
 146.0400       47
 146.0800       33
 146.1200       55
 146.1600       36
 146.2000       40
 146.2400       40
 146.2800       50
 146.3200       47
 146.3600       33
 146.4000       28
 146.4400       47
 146.4800       45
 146.5200       37
 146.5600       30
 146.6000       39
 146.6400       43
 146.6800       41
 146.7200       38
 146.7600       36
 146.8000       41
 146.8400       38
 146.8800       35
 146.9200       39
 146.9600       36
 147.0000       33
 147.0400       42
 147.0800       32
 147.1200       27
 147.1600       45
 147.2000       39
 147.2400       50
 147.2800       32
 147.3200       44
 147.3600       35
 147.4000       41
 147.4400       49
 147.4800       43
 147.5200       42
 147.5600       47
 147.6000       45
 147.6400       33
 147.6800       34
 147.7200       33
 147.7600       45
 147.8000       44
 147.8400       46
 147.8800       56
 147.9200       35
 147.9600       48
 148.0000       44
 148.0400       46
 148.0800       50
 148.1200       43
 148.1600       48
 148.2000       43
 148.2400       46
 148.2800       35
 148.3200       53
 148.3600       41
 148.4000       37
 148.4400       56
 148.4800       38
 148.5200       38
 148.5600       44
 148.6000       48
 148.6400       46
 148.6800       46
 148.7200       34
 148.7600       39
 148.8000       38
 148.8400       52
 148.8800       52
 148.9200       53
 148.9600       34
 149.0000       43
 149.0400       39
 149.0800       52
 149.1200       47
 149.1600       43
 149.2000       45
 149.2400       41
 149.2800       46
 149.3200       56
 149.3600       49
 149.4000       49
 149.4400       52
 149.4800       37
 149.5200       49
 149.5600       58
 149.6000       63
 149.6400       53
 149.6800       56
 149.7200       58
 149.7600       35
 149.8000       50
 149.8400       46
 149.8800       53
 149.9200       55
 149.9600       47
 150.0000       43
 150.0400       59
 150.0800       59
 150.1200       49
 150.1600       50
 150.2000       45
 150.2400       54
 150.2800       66
 150.3200       60
 150.3600       53
 150.4000       71
 150.4400       43
 150.4800       64
 150.5200       52
 150.5600       63
 150.6000       47
 150.6400       60
 150.6800       69
 150.7200       55
 150.7600       57
 150.8000       55
 150.8400       57
 150.8800       76
 150.9200       54
 150.9600       61
 151.0000       71
 151.0400       58
 151.0800       77
 151.1200       72
 151.1600       66
 151.2000       70
 151.2400       84
 151.2800       68
 151.3200       53
 151.3600       64
 151.4000       88
 151.4400       74
 151.4800       79
 151.5200       81
 151.5600       77
 151.6000       91
 151.6400       97
 151.6800       99
 151.7200       99
 151.7600       86
 151.8000      107
 151.8400      106
 151.8800       72
 151.9200       90
 151.9600       90
 152.0000       98
 152.0400       97
 152.0800       99
 152.1200      104
 152.1600       97
 152.2000      118
 152.2400      122
 152.2800      107
 152.3200      132
 152.3600      143
 152.4000      123
 152.4400      127
 152.4800      116
 152.5200      135
 152.5600      148
 152.6000      134
 152.6400      144
 152.6800      152
 152.7200      141
 152.7600      170
 152.8000      158
 152.8400      172
 152.8800      176
 152.9200      170
 152.9600      175
 153.0000      198
 153.0400      186
 153.0800      216
 153.1200      221
 153.1600      212
 153.2000      226
 153.2400      217
 153.2800      198
 153.3200      239
 153.3600      206
 153.4000      244
 153.4400      279
 153.4800      255
 153.5200      281
 153.5600      269
 153.6000      308
 153.6400      281
 153.6800      347
 153.7200      344
 153.7600      320
 153.8000      351
 153.8400      338
 153.8800      349
 153.9200      352
 153.9600      340
 154.0000      379
 154.0400      353
 154.0800      375
 154.1200      387
 154.1600      426
 154.2000      390
 154.2400      427
 154.2800      425
 154.3200      397
 154.3600      448
 154.4000      430
 154.4400      448
 154.4800      450
 154.5200      483
 154.5600      445
 154.6000      460
 154.6400      476
 154.6800      456
 154.7200      452
 154.7600      449
 154.8000      471
 154.8400      468
 154.8800      426
 154.9200      454
 154.9600      429
 155.0000      490

File: SDD_sample_name_01234_Psi-15_20180602-101701.txt
 145.0000       48
 145.0200       49
 145.0200       49
 145.0600       29
 145.0600       29
 145.1000       34
 145.1000       34
 145.1400       41
 145.1400       41
 145.1800       42
 145.1800       42
 145.2200       48
 145.2200       48
 145.2600       36
 145.2600       36
 145.3000       32
 145.3000       32
 145.3400       30
 145.3400       30
 145.3800       30
 145.3800       30
 145.4200       45
 145.4200       45
 145.4600       36
 145.4600       36
 145.5000       30
 145.5000       30
 145.5400       35
 145.5400       35
 145.5800       32
 145.5800       32
 145.6200       35
 145.6200       35
 145.6600       32
 145.6600       32
 145.7000       30
 145.7000       30
 145.7400       35
 145.7400       35
 145.7800       32
 145.7800       32
 145.8200       22
 145.8200       22
 145.8600       44
 145.8600       44
 145.9000       46
 145.9000       46
 145.9400       47
 145.9400       47
 145.9800       56
 145.9800       56
 146.0200       42
 146.0200       42
 146.0600       35
 146.0600       35
 146.1000       36
 146.1000       36
 146.1400       43
 146.1400       43
 146.1800       45
 146.1800       45
 146.2200       37
 146.2200       37
 146.2600       33
 146.2600       33
 146.3000       40
 146.3000       40
 146.3400       34
 146.3400       34
 146.3800       45
 146.3800       45
 146.4200       41
 146.4200       41
 146.4600       42
 146.4600       42
 146.5000       39
 146.5400       38
 146.5200       57
 146.5600       48
 146.5600       48
 146.6000       47
 146.6000       47
 146.6400       44
 146.6400       44
 146.6800       52
 146.6800       52
 146.7200       42
 146.7200       42
 146.7600       37
 146.7600       37
 146.8000       40
 146.8000       40
 146.8400       37
 146.8400       37
 146.8800       38
 146.8800       38
 146.9200       41
 146.9200       41
 146.9600       34
 146.9600       34
 147.0000       35
 147.0000       35
 147.0400       35
 147.0400       35
 147.0800       41
 147.0800       41
 147.1200       32
 147.1200       32
 147.1600       31
 147.1600       31
 147.2000       35
 147.2000       35
 147.2400       53
 147.2400       53
 147.2800       57
 147.2800       57
 147.3200       48
 147.3200       48
 147.3600       37
 147.3600       37
 147.4000       41
 147.4000       41
 147.4400       49
 147.4800       48
 147.4600       41
 147.5000       38
 147.5000       38
 147.5400       42
 147.5400       42
 147.5800       51
 147.5800       51
 147.6200       39
 147.6200       39
 147.6600       47
 147.6600       47
 147.7000       40
 147.7000       40
 147.7400       44
 147.7400       44
 147.7800       42
 147.7800       42
 147.8200       42
 147.8200       42
 147.8600       42
 147.8600       42
 147.9000       39
 147.9000       39
 147.9400       39
 147.9400       39
 147.9800       46
 147.9800       46
 148.0200       36
 148.0200       36
 148.0600       46
 148.0600       46
 148.1000       42
 148.1000       42
 148.1400       47
 148.1400       47
 148.1800       44
 148.1800       44
 148.2200       39
 148.2600       44
 148.2400       49
 148.2800       36
 148.2800       36
 148.3200       50
 148.3200       50
 148.3600       36
 148.3600       36
 148.4000       42
 148.4000       42
 148.4400       45
 148.4400       45
 148.4800       27
 148.4800       27
 148.5200       46
 148.5200       46
 148.5600       42
 148.5600       42
 148.6000       41
 148.6000       41
 148.6400       44
 148.6400       44
 148.6800       48
 148.6800       48
 148.7200       52
 148.7200       52
 148.7600       54
 148.7600       54
 148.8000       39
 148.8000       39
 148.8400       55
 148.8400       55
 148.8800       47
 148.8800       47
 148.9200       40
 148.9200       40
 148.9600       42
 148.9600       42
 149.0000       43
 149.0000       43
 149.0400       40
 149.0400       40
 149.0800       40
 149.0800       40
 149.1200       38
 149.1200       38
 149.1600       48
 149.1800       47
 149.2200       43
 149.2400       54
 149.2800       52
 149.2600       44
 149.3000       54
 149.3000       54
 149.3400       56
 149.3400       56
 149.3800       45
 149.3800       45
 149.4200       50
 149.4200       50
 149.4600       57
 149.4600       57
 149.5000       49
 149.5000       49
 149.5400       47
 149.5400       47
 149.5800       48
 149.5800       48
 149.6200       67
 149.6200       67
 149.6600       45
 149.6600       45
 149.7000       50
 149.7000       50
 149.7400       44
 149.7400       44
 149.7800       55
 149.8200       56
 149.8000       57
 149.8400       46
 149.8400       46
 149.8800       54
 149.8800       54
 149.9200       57
 149.9200       57
 149.9600       54
 149.9600       54
 150.0000       45
 150.0000       45
 150.0200       49

File: SDD_sample_name_01234_Psi-15_20180602-103223.txt
 145.0000       38
 145.0400       29
 145.0800       38
 145.1200       28
 145.1600       44
 145.2000       36
 145.2400       52
 145.2800       34
 145.3200       29
 145.3600       43
 145.4000       36
 145.4400       35
 145.4800       38
 145.5200       38
 145.5600       24
 145.6000       27
 145.6400       21
 145.6800       35
 145.7200       40
 145.7600       33
 145.8000       31
 145.8400       35
 145.8800       27
 145.9200       29
 145.9600       36
 146.0000       36
 146.0400       42
 146.0800       46
 146.1200       27
 146.1600       33
 146.2000       39
 146.2400       42
 146.2800       33
 146.3200       35
 146.3600       40
 146.4000       42
 146.4400       35
 146.4800       39
 146.5200       45
 146.5600       47
 146.6000       40
 146.6400       24
 146.6800       40
 146.7200       33
 146.7600       41
 146.8000       39
 146.8400       44
 146.8800       30
 146.9200       33
 146.9600       37
 147.0000       31
 147.0400       35
 147.0800       29
 147.1200       36
 147.1600       43
 147.2000       31
 147.2400       42
 147.2800       40
 147.3200       36
 147.3600       34
 147.4000       37
 147.4400       22
 147.4800       53
 147.5200       31
 147.5600       29
 147.6000       45
 147.6400       43
 147.6800       34
 147.7200       37
 147.7600       38
 147.8000       49
 147.8400       47
 147.8800       43
 147.9200       31
 147.9600       48
 148.0000       34
 148.0400       29
 148.0800       39
 148.1200       32
 148.1600       45
 148.2000       39
 148.2400       24
 148.2800       36
 148.3200       45
 148.3600       37
 148.4000       29
 148.4400       37
 148.4800       42
 148.5200       38
 148.5600       45
 148.6000       46
 148.6400       41
 148.6800       41
 148.7200       38
 148.7600       34
 148.8000       42
 148.8400       41
 148.8800       35
 148.9200       45
 148.9600       44
 149.0000       40
 149.0400       36
 149.0800       46
 149.1200       44
 149.1600       43
 149.2000       44
 149.2400       44
 149.2800       54
 149.3200       38
 149.3600       47
 149.4000       46
 149.4400       58
 149.4800       34
 149.5200       59
 149.5600       37
 149.6000       52
 149.6400       49
 149.6800       41
 149.7200       40
 149.7600       45
 149.8000       46
 149.8400       52
 149.8800       49
 149.9200       47
 149.9600       44
 150.0000       44
 150.0400       50
 150.0800       49
 150.1200       51
 150.1600       54
 150.2000       45
 150.2400       54
 150.2800       53
 150.3200       48
 150.3600       52
 150.4000       68
 150.4400       59
 150.4800       58
 150.5200       60
 150.5600       56
 150.6000       62
 150.6400       51
 150.6800       55
 150.7200       53
 150.7600       50
 150.8000       56
 150.8400       63
 150.8800       57
 150.9200       63
 150.9600       57
 151.0000       67
 151.0400       71
 151.0800       58
 151.1200       61
 151.1600       62
 151.2000       98
 151.2400       74
 151.2800       86
 151.3200       89
 151.3600       73
 151.4000       71
 151.4400       82
 151.4800       79
 151.5200       79
 151.5600       69
 151.6000       93
 151.6400       87
 151.6800       83
 151.7200       80
 151.7600       86
 151.8000       90
 151.8400       82
 151.8800       84
 151.9200       82
 151.9600       96
 152.0000       91
 152.0400       92
 152.0800       95
 152.1200       94
 152.1600      114
 152.2000      114
 152.2400      107
 152.2800      121
 152.3200      103
 152.3600      118
 152.4000      132
 152.4400      137
 152.4800      133
 152.5200      133
 152.5600      123
 152.6000      132
 152.6400      143
 152.6800      131
 152.7200      151
 152.7600      130
 152.8000      143
 152.8400      155
 152.8800      160
 152.9200      169
 152.9600      172
 153.0000      217
 153.0400      163
 153.0800      182
 153.1200      195
 153.1600      196
 153.2000      179
 153.2400      215
 153.2800      205
 153.3200      235
 153.3600      224
 153.4000      233
 153.4400      246
 153.4800      254
 153.5200      296
 153.5600      281
 153.6000      261
 153.6400      275
 153.6800      251
 153.7200      278
 153.7600      279
 153.8000      306
 153.8400      317
 153.8800      333
 153.9200      346
 153.9600      328
 154.0000      336
 154.0400      358
 154.0800      348
 154.1200      404
 154.1600      351
 154.2000      375
 154.2400      378
 154.2800      420
 154.3200      370
 154.3600      396
 154.4000      459
 154.4400      469
 154.4800      446
 154.5200      428
 154.5600      450
 154.6000      423
 154.6400      415
 154.6800      471
 154.7200      435
 154.7600      411
 154.8000      453
 154.8400      445
 154.8800      456
 154.9200      431
 154.9600      459
 155.0000      435

File: SDD_sample_name_01234_Psi-15_20180602-105658.txt
 145.0000       29
 145.0200       35
 145.0400       28
 145.0600       33
 145.0800       33
 145.1000       41
 145.1200       27
 145.1400       38
 145.1600       37
 145.1800       46
 145.2000       47
 145.2200       35
 145.2400       25
 145.2600       46
 145.2800       43
 145.3000       42
 145.3200       41
 145.3400       46
 145.3600       40
 145.3800       33
 145.4000       32
 145.4200       39
 145.4400       32
 145.4600       38
 145.4800       33
 145.5000       37
 145.5200       45
 145.5400       43
 145.5600       33
 145.5800       35
 145.6000       33
 145.6200       32
 145.6400       48
 145.6600       40
 145.6800       54
 145.7000       38
 145.7200       41
 145.7400       38
 145.7600       32
 145.7800       36
 145.8000       41
 145.8200       28
 145.8400       37
 145.8600       39
 145.8800       40
 145.9000       49
 145.9200       29
 145.9400       29
 145.9600       44
 145.9800       41
 146.0000       36
 146.0200       42
 146.0400       43
 146.0600       41
 146.0800       39
 146.1000       34
 146.1200       46
 146.1400       38
 146.1600       36
 146.1800       40
 146.2000       30
 146.2200       45
 146.2400       30
 146.2600       34
 146.2800       35
 146.3000       48
 146.3200       38
 146.3400       30
 146.3600       40
 146.3800       32
 146.4000       39
 146.4200       35
 146.4400       42
 146.4600       43
 146.4800       42
 146.5000       38
 146.5200       37
 146.5400       40
 146.5600       34
 146.5800       34
 146.6000       32
 146.6200       42
 146.6400       41
 146.6600       33
 146.6800       46
 146.7000       31
 146.7200       33
 146.7400       36
 146.7600       35
 146.7800       47
 146.8000       44
 146.8200       43
 146.8400       47
 146.8600       34
 146.8800       39
 146.9000       43
 146.9200       44
 146.9400       35
 146.9600       43
 146.9800       32
 147.0000       34
 147.0200       33
 147.0400       42
 147.0600       41
 147.0800       43
 147.1000       29
 147.1200       36
 147.1400       39
 147.1600       35
 147.1800       44
 147.2000       43
 147.2200       46
 147.2400       33
 147.2600       36
 147.2800       57
 147.3000       42
 147.3200       41
 147.3400       47
 147.3600       35
 147.3800       36
 147.4000       52
 147.4200       30
 147.4400       31
 147.4600       47
 147.4800       46
 147.5000       49
 147.5200       48
 147.5400       49
 147.5600       41
 147.5800       54
 147.6000       36
 147.6200       36
 147.6400       48
 147.6600       35
 147.6800       28
 147.7000       50
 147.7200       47
 147.7400       43
 147.7600       56
 147.7800       44
 147.8000       37
 147.8200       38
 147.8400       33
 147.8600       49
 147.8800       44
 147.9000       42
 147.9200       38
 147.9400       41
 147.9600       38
 147.9800       39
 148.0000       45
 148.0200       53
 148.0400       46
 148.0600       44
 148.0800       56
 148.1000       48
 148.1200       39
 148.1400       32
 148.1600       45
 148.1800       54
 148.2000       47
 148.2200       44
 148.2400       54
 148.2600       57
 148.2800       46
 148.3000       43
 148.3200       41
 148.3400       40
 148.3600       34
 148.3800       32
 148.4000       61
 148.4200       41
 148.4400       48
 148.4600       56
 148.4800       50
 148.5000       46
 148.5200       57
 148.5400       38
 148.5600       53
 148.5800       40
 148.6000       31
 148.6200       44
 148.6400       49
 148.6600       36
 148.6800       47
 148.7000       38
 148.7200       46
 148.7400       48
 148.7600       38
 148.7800       39
 148.8000       46
 148.8200       46
 148.8400       49
 148.8600       46
 148.8800       25
 148.9000       44
 148.9200       53
 148.9400       37
 148.9600       38
 148.9800       52
 149.0000       36
 149.0200       61
 149.0400       50
 149.0600       45
 149.0800

File: SDD_sample_name_01234_Psi-15_20180602-131443.txt
 145.0000       34
 145.0400       43
 145.0800       38
 145.1200       29
 145.1600       31
 145.2000       40
 145.2400       43
 145.2800       39
 145.3200       41
 145.3600       39
 145.4000       48
 145.4400       40
 145.4800       33
 145.5200       39
 145.5600       32
 145.6000       46
 145.6400       32
 145.6800       36
 145.7200       41
 145.7600       42
 145.8000       36
 145.8400       41
 145.8800       36
 145.9200       42
 145.9600       39
 146.0000       39
 146.0400       50
 146.0800       51
 146.1200       31
 146.1600       43
 146.2000       34
 146.2400       37
 146.2800       37
 146.3200       42
 146.3600       30
 146.4000       34
 146.4400       49
 146.4800       34
 146.5200       35
 146.5600       40
 146.6000       44
 146.6400       36
 146.6800       48
 146.7200       45
 146.7600       40
 146.8000       32
 146.8400       47
 146.8800       39
 146.9200       33
 146.9600       39
 147.0000       46
 147.0400       45
 147.0800       40
 147.1200       50
 147.1600       48
 147.2000       43
 147.2400       46
 147.2800       46
 147.3200       47
 147.3600       34
 147.4000       50
 147.4400       55
 147.4800       54
 147.5200       39
 147.5600       39
 147.6000       41
 147.6400       29
 147.6800       33
 147.7200       47
 147.7600       51
 147.8000       40
 147.8400       30
 147.8800       37
 147.9200       43
 147.9600       44
 148.0000       41
 148.0400       42
 148.0800       45
 148.1200       41
 148.1600       39
 148.2000       50
 148.2400       45
 148.2800       36
 148.3200       46
 148.3600       49
 148.4000       46
 148.4400       44
 148.4800       48
 148.5200       34
 148.5600       42
 148.6000       45
 148.6400       36
 148.6800       48
 148.7200       38
 148.7600       50
 148.8000       65
 148.8400       38
 148.8800       44
 148.9200       44
 148.9600       43
 149.0000       44
 149.0400       39
 149.0800       62
 149.1200       40
 149.1600       45
 149.2000       48
 149.2400       56
 149.2800       42
 149.3200       53
 149.3600       60
 149.4000       40
 149.4400       46
 149.4800       39
 149.5200       48
 149.5600       45
 149.6000       44
 149.6400       37
 149.6800       51
 149.7200       52
 149.7600       59
 149.8000       43
 149.8400       43
 149.8800       59
 149.9200       64
 149.9600       43
 150.0000       55
 150.0400       48
 150.0800       63
 150.1200       50
 150.1600       57
 150.2000       67
 150.2400       56
 150.2800       56
 150.3200       50
 150.3600       54
 150.4000       55
 150.4400       50
 150.4800       70
 150.5200       63
 150.5600       62
 150.6000       62
 150.6400       76
 150.6800       63
 150.7200       76
 150.7600       67
 150.8000       53
 150.8400       59
 150.8800       68
 150.9200       72
 150.9600       59
 151.0000       74
 151.0400       67
 151.0800       66
 151.1200       78
 151.1600       84
 151.2000       73
 151.2400       69
 151.2800       78
 151.3200       96
 151.3600       88
 151.4000       82
 151.4400       77
 151.4800       63
 151.5200       77
 151.5600       73
 151.6000      104
 151.6400       76
 151.6800       88
 151.7200       94
 151.7600       84
 151.8000       93
 151.8400       90
 151.8800       97
 151.9200       96
 151.9600      101
 152.0000       96
 152.0400       93
 152.0800      111
 152.1200      126
 152.1600      112
 152.2000      109
 152.2400      103
 152.2800      127
 152.3200      127
 152.3600      136
 152.4000      133
 152.4400      140
 152.4800      149
 152.5200      131
 152.5600      141
 152.6000      146
 152.6400      139
 152.6800      165
 152.7200      148
 152.7600      151
 152.8000      171
 152.8400      160
 152.8800      164
 152.9200      194
 152.9600      168
 153.0000      188
 153.0400      196
 153.0800      206
 153.1200      209
 153.1600      236
 153.1800