Folder: xrd/XRD_Tool/XRD_Tool/bin/Debug (part 15)

File: SDD_sample_name_001_Psi-0_20180528-025750.txt
 145.0000       47
 145.0400       49
 145.0800       51
 145.1200       51
 145.1600       60
 145.2000       51
 145.2400       62
 145.2800       45
 145.3200       46
 145.3600       35
 145.4000       53
 145.4400       43
 145.4800       41
 145.5200       54
 145.5600       53
 145.6000       48
 145.6400       65
 145.6800       46
 145.7200       53
 145.7600       50
 145.8000       49
 145.8400       53
 145.8800       48
 145.9200       43
 145.9600       50
 146.0000       62
 146.0400       53
 146.0800       52
 146.1200       63
 146.1600       52
 146.2000       53
 146.2400       43
 146.2800       48
 146.3200       58
 146.3600       53
 146.4000       60
 146.4400       50
 146.4800       57
 146.5200       49
 146.5600       55
 146.6000       54
 146.6400       54
 146.6800       55
 146.7200       53
 146.7600       53
 146.8000       66
 146.8400       45
 146.8800       51
 146.9200       59
 146.9600       51
 147.0000       59
 147.0400       51
 147.0800       63
 147.1200       53
 147.1600       49
 147.2000       48
 147.2400       51
 147.2800       52
 147.3200       58
 147.3600       44
 147.4000       56
 147.4400       49
 147.4800       55
 147.5200       56
 147.5600       52
 147.6000       45
 147.6400       53
 147.6800       53
 147.7200       57
 147.7600       51
 147.8000       55
 147.8400       64
 147.8800       50
 147.9200       42
 147.9600       50
 148.0000       65
 148.0400       52
 148.0800       53
 148.1200       68
 148.1600       46
 148.2000       77
 148.2400       50
 148.2800       61
 148.3200       56
 148.3600       55
 148.4000       69
 148.4400       59
 148.4800       51
 148.5200       53
 148.5600       72
 148.6000       59
 148.6400       57
 148.6800       68
 148.7200       74
 148.7600       68
 148.8000       70
 148.8400       74
 148.8800       58
 148.9200       61
 148.9600       68
 149.0000       75
 149.0400       67
 149.0800       59
 149.1200       56
 149.1600       54
 149.2000       65
 149.2400       63
 149.2800       60
 149.3200       55
 149.3600       57
 149.4000       52
 149.4400       67
 149.4800       67
 149.5200       58
 149.5600       68
 149.6000       54
 149.6400       70
 149.6800       81
 149.7200       58
 149.7600       67
 149.8000       72
 149.8400       60
 149.8800       67
 149.9200       60
 149.9600       71
 150.0000       76
 150.0400       62
 150.0800       63
 150.1200       69
 150.1600       68
 150.2000       64
 150.2400       72
 150.2800       76
 150.3200       64
 150.3600       83
 150.4000       69
 150.4400       80
 150.4800       83
 150.5200       71
 150.5600       60
 150.6000       69
 150.6400       83
 150.6800       65
 150.7200       72
 150.7600       85
 150.8000       77
 150.8400       72
 150.8800       69
 150.9200       83
 150.9600       79
 151.0000       87
 151.0400       80
 151.0800       81
 151.1200       84
 151.1600       98
 151.2000       87
 151.2400       97
 151.2800       76
 151.3200       89
 151.3600       91
 151.4000      101
 151.4400       99
 151.4800      106
 151.5200       87
 151.5600       99
 151.6000       91
 151.6400      101
 151.6800      103
 151.7200      106
 151.7600      108
 151.8000      104
 151.8400      109
 151.8800      109
 151.9200      109
 151.9600      120
 152.0000      142
 152.0400      125
 152.0800      141
 152.1200      125
 152.1600      133
 152.2000      111
 152.2400      118
 152.2800      118
 152.3200      133
 152.3600      137
 152.4000      148
 152.4400      161
 152.4800      152
 152.5200      142
 152.5600      148
 152.6000      159
 152.6400      163
 152.6800      160
 152.7200      168
 152.7600      180
 152.8000      165
 152.8400      195
 152.8800      186
 152.9200      201
 152.9600      190
 153.0000      196
 153.0400      207
 153.0800      208
 153.1200      254
 153.1600      231
 153.2000      240
 153.2400      258
 153.2800      225
 153.3200      233
 153.3600      267
 153.4000      272
 153.4400      292
 153.4800      274
 153.5200      312
 153.5600      305
 153.6000      320
 153.6400      327
 153.6800      355
 153.7200      341
 153.7600      380
 153.8000      352
 153.8400      336
 153.8800      371
 153.9200      410
 153.9600      364
 154.0000      393
 154.0400      416
 154.0800      409
 154.1200      410
 154.1600      389
 154.2000      432
 154.2400      456
 154.2800      477
 154.3200      456
 154.3600      407
 154.4000      481
 154.4400      458
 154.4800      446
 154.5200      502
 154.5600      445
 154.6000      513
 154.6400      474
 154.6800      481
 154.7200      482
 154.7600      495
 154.8000      441
 154.8400      446
 154.8800      482
 154.9200      499
 154.9600      502
 155.0000      522

File: SDD_sample_name_001_Psi-0_20180528-050354.txt
 150.0000       30
 150.0400       23
 150.0800       42
 150.1200       32
 150.1600       30
 150.2000       28
 150.2400       34
 150.2800       28
 150.3200       35
 150.3600       37
 150.4000       38
 150.4400       30
 150.4800       31
 150.5200       35
 150.5600       43
 150.6000       40
 150.6400       44
 150.6800       41
 150.7200       39
 150.7600       42
 150.8000       35
 150.8400       46
 150.8800       40
 150.9200       39
 150.9600       41
 151.0000       42
 151.0400       53
 151.0800       35
 151.1200       46
 151.1600       44
 151.2000       55
 151.2400       53
 151.2800       44
 151.3200       55
 151.3600       64
 151.4000       63
 151.4400       49
 151.4800       61
 151.5200       63
 151.5600       67
 151.6000       60
 151.6400       64
 151.6800       80
 151.7200       66
 151.7600       76
 151.8000       65
 151.8400       75
 151.8800       77
 151.9200       67
 151.9600       82
 152.0000       76
 152.0400       71
 152.0800       93
 152.1200      101
 152.1600       90
 152.2000       93
 152.2400       83
 152.2800       89
 152.3200      102
 152.3600       96
 152.4000       97
 152.4400      116
 152.4800      100
 152.5200      102
 152.5600      104
 152.6000      119
 152.6400      124
 152.6800      129
 152.7200      122
 152.7600      136
 152.8000      129
 152.8400      115
 152.8800      155
 152.9200      145
 152.9600      139
 153.0000      161
 153.0400      170
 153.0800      152
 153.1200      166
 153.1600      180
 153.2000      166
 153.2400      199
 153.2800      191
 153.3200      160
 153.3600      212
 153.4000      196
 153.4400      220
 153.4800      197
 153.5200      220
 153.5600      220
 153.6000      229
 153.6400      255
 153.6800      264
 153.7200      275
 153.7600      257
 153.8000      269
 153.8400      280
 153.8800      303
 153.9200      275
 153.9600      293
 154.0000      312
 154.0400      307
 154.0800      322
 154.1200      321
 154.1600      316
 154.2000      347
 154.2400      400
 154.2800      347
 154.3200      353
 154.3600      313
 154.4000      380
 154.4400      381
 154.4800      391
 154.5200      386
 154.5600      344
 154.6000      372
 154.6400      362
 154.6800      372
 154.7200      399
 154.7600      400
 154.8000      384
 154.8400      355
 154.8800      378
 154.9200      367
 154.9600      400
 155.0000      386
 155.0400      371
 155.0800      358
 155.1200      379
 155.1600      352
 155.2000      358
 155.2400      373
 155.2800      383
 155.3200      336
 155.3600      383
 155.4000      304
 155.4400      310
 155.4800      358
 155.5200      327
 155.5600      314
 155.6000      292
 155.6400      296
 155.6800      328
 155.7200      304
 155.7600      301
 155.8000      306
 155.8400      281
 155.8800      266
 155.9200      303
 155.9600      283
 156.0000      265
 156.0400      286
 156.0800      249
 156.1200      234
 156.1600      255
 156.2000      272
 156.2400      242
 156.2800      229
 156.3200      211
 156.3600      225
 156.4000      230
 156.4400      212
 156.4800      196
 156.5200      213
 156.5600      186
 156.6000      197
 156.6400      211
 156.6800      196
 156.7200      173
 156.7600      205
 156.8000      156
 156.8400      175
 156.8800      175
 156.9200      174
 156.9600      159
 157.0000      174
 157.0400      142
 157.0800      154
 157.1200      139
 157.1600      148
 157.2000      156
 157.2400      135
 157.2800      132
 157.3200      107
 157.3600      143
 157.4000      147
 157.4400      125
 157.4800      107
 157.5200      112
 157.5600      120
 157.6000      134
 157.6400      119
 157.6800      118
 157.7200      100
 157.7600      113
 157.8000      116
 157.8400      103
 157.8800      119
 157.9200      126
 157.9600       92
 158.0000      107
 158.0400       97
 158.0800      108
 158.1200       97
 158.1600       91
 158.2000       90
 158.2400       91
 158.2800      110
 158.3200      101
 158.3600       97
 158.4000       79
 158.4400       96
 158.4800       97
 158.5200       83
 158.5600       78
 158.6000       83
 158.6400       92
 158.6800       76
 158.7200       89
 158.7600       85
 158.8000       82
 158.8400       80
 158.8800       93
 158.9200       79
 158.9600      105
 159.0000       72
 159.0400       77
 159.0800       81
 159.1200       74
 159.1600       73
 159.2000       90
 159.2400       70
 159.2800       81
 159.3200       81
 159.3600       72
 159.4000       71
 159.4400       83
 159.4800       87
 159.5200       76
 159.5600       51
 159.6000       70
 159.6400       71
 159.6800       62
 159.7200       74
 159.7600       69
 159.8000       90
 159.8400       70
 159.8800       67
 159.9200       74
 159.9600       71
 160.0000       76

File: SDD_sample_name_001_Psi-0_20180528-074414.txt
 150.0000       63
 150.0400       65
 150.0800       57
 150.1200       65
 150.1600       71
 150.2000       74
 150.2400       61
 150.2800       70
 150.3200       72
 150.3600       75
 150.4000       69
 150.4400       69
 150.4800       63
 150.5200       74
 150.5600       76
 150.6000       64
 150.6400       59
 150.6800       78
 150.7200       74
 150.7600       80
 150.8000       69
 150.8400       83
 150.8800       76
 150.9200       81
 150.9600       85
 151.0000       83
 151.0400       64
 151.0800       75
 151.1200       95
 151.1600       86
 151.2000      106
 151.2400       82
 151.2800       82
 151.3200       90
 151.3600       94
 151.4000       83
 151.4400       92
 151.4800      100
 151.5200       86
 151.5600       87
 151.6000       89
 151.6400      106
 151.6800       95
 151.7200       88
 151.7600      119
 151.8000      107
 151.8400      113
 151.8800       96
 151.9200      115
 151.9600      128
 152.0000      124
 152.0400      131
 152.0800      123
 152.1200      118
 152.1600      114
 152.2000      110
 152.2400      130
 152.2800      135
 152.3200      135
 152.3600      125
 152.4000      140
 152.4400      148
 152.4800      147
 152.5200      150
 152.5600      148
 152.6000      156
 152.6400      170
 152.6800      168
 152.7200      170
 152.7600      202
 152.8000      161
 152.8400      183
 152.8800      198
 152.9200      173
 152.9600      214
 153.0000      214
 153.0400      233
 153.0800      220
 153.1200      208
 153.1600      231
 153.2000      243
 153.2400      234
 153.2800      248
 153.3200      285
 153.3600      273
 153.4000      274
 153.4400      286
 153.4800      263
 153.5200      315
 153.5600      299
 153.6000      298
 153.6400      324
 153.6800      332
 153.7200      325
 153.7600      346
 153.8000      375
 153.8400      398
 153.8800      374
 153.9200      390
 153.9600      394
 154.0000      394
 154.0400      415
 154.0800      435
 154.1200      430
 154.1600      451
 154.2000      425
 154.2400      451
 154.2800      462
 154.3200      493
 154.3600      463
 154.4000      435
 154.4400      479
 154.4800      479
 154.5200      487
 154.5600      465
 154.6000      521
 154.6400      491
 154.6800      480
 154.7200      469
 154.7600      485
 154.8000      453
 154.8400      486
 154.8800      515
 154.9200      528
 154.9600      456
 155.0000      479
 155.0400      467
 155.0800      429
 155.1200      444
 155.1600      485
 155.2000      482
 155.2400      451
 155.2800      433
 155.3200      420
 155.3600      415
 155.4000      446
 155.4400      441
 155.4800      424
 155.5200      428
 155.5600      427
 155.6000      429
 155.6400      411
 155.6800      379
 155.7200      379
 155.7600      375
 155.8000      398
 155.8400      321
 155.8800      353
 155.9200      346
 155.9600      333
 156.0000      318
 156.0400      308
 156.0800      323
 156.1200      309
 156.1600      289
 156.2000      298
 156.2400      294
 156.2800      276
 156.3200      285
 156.3600      283
 156.4000      231
 156.4400      244
 156.4800      222
 156.5200      267
 156.5600      263
 156.6000      227
 156.6400      221
 156.6800      241
 156.7200      233
 156.7600      241
 156.8000      218
 156.8400      183
 156.8800      192
 156.9200      185
 156.9600      192
 157.0000      194
 157.0400      216
 157.0800      179
 157.1200      172
 157.1600      167
 157.2000      183
 157.2400      158
 157.2800      153
 157.3200      179
 157.3600      149
 157.4000      125
 157.4400      139
 157.4800      157
 157.5200      121
 157.5600      149
 157.6000      136
 157.6400      125
 157.6800      136
 157.7200      120
 157.7600      115
 157.8000      110
 157.8400      109
 157.8800      149
 157.9200      138
 157.9600      122
 158.0000      126
 158.0400      138
 158.0800      112
 158.1200       99
 158.1600      110
 158.2000      118
 158.2400      117
 158.2800      103
 158.3200      118
 158.3600       97
 158.4000      125
 158.4400      101
 158.4800       97
 158.5200       99
 158.5600      104
 158.6000       98
 158.6400       91
 158.6800       92
 158.7200       75
 158.7600       98
 158.8000       95
 158.8400       95
 158.8800       80
 158.9200       93
 158.9600       98
 159.0000       78
 159.0400       94
 159.0800       78
 159.1200       82
 159.1600       96
 159.2000       81
 159.2400       92
 159.2800       85
 159.3200       67
 159.3600       80
 159.4000       88
 159.4400       78
 159.4800       56
 159.5200       83
 159.5600       80
 159.6000       87
 159.6400       91
 159.6800       80
 159.7200       65
 159.7600       92
 159.8000       69
 159.8400       80
 159.8800       67
 159.9200       61
 159.9600       62
 160.0000       84

File: SDD_sample_name_001_Psi-15_20180528-025140.txt
 150.0000       52
 150.0400       66
 150.0800       72
 150.1200       76
 150.1600       67
 150.2000       72
 150.2400       67
 150.2800       72
 150.3200       60
 150.3600       63
 150.4000       66
 150.4400       86
 150.4800       82
 150.5200       60
 150.5600       95
 150.6000       77
 150.6400       84
 150.6800       78
 150.7200       63
 150.7600       70
 150.8000       79
 150.8400       75
 150.8800       79
 150.9200       91
 150.9600       72
 151.0000       92
 151.0400       81
 151.0800      100
 151.1200       80
 151.1600       83
 151.2000       84
 151.2400       84
 151.2800       77
 151.3200       94
 151.3600       96
 151.4000       99
 151.4400      116
 151.4800      102
 151.5200       97
 151.5600       83
 151.6000       90
 151.6400       94
 151.6800       71
 151.7200       97
 151.7600      103
 151.8000      101
 151.8400       97
 151.8800      109
 151.9200      105
 151.9600      105
 152.0000      112
 152.0400       98
 152.0800      108
 152.1200      103
 152.1600      128
 152.2000      119
 152.2400       99
 152.2800      113
 152.3200      123
 152.3600      121
 152.4000      146
 152.4400      125
 152.4800      112
 152.5200      138
 152.5600      159
 152.6000      167
 152.6400      173
 152.6800      156
 152.7200      172
 152.7600      135
 152.8000      176
 152.8400      185
 152.8800      164
 152.9200      175
 152.9600      186
 153.0000      191
 153.0400      196
 153.0800      182
 153.1200      219
 153.1600      208
 153.2000      216
 153.2400      230
 153.2800      233
 153.3200      251
 153.3600      227
 153.4000      239
 153.4400      254
 153.4800      265
 153.5200      280
 153.5600      251
 153.6000      300
 153.6400      285
 153.6800      306
 153.7200      295
 153.7600      330
 153.8000      302
 153.8400      332
 153.8800      371
 153.9200      369
 153.9600      336
 154.0000      378
 154.0400      378
 154.0800      369
 154.1200      389
 154.1600      396
 154.2000      427
 154.2400      430
 154.2800      401
 154.3200      392
 154.3600      442
 154.4000      414
 154.4400      463
 154.4800      476
 154.5200      475
 154.5600      438
 154.6000      455
 154.6400      462
 154.6800      427
 154.7200      453
 154.7600      489
 154.8000      456
 154.8400      454
 154.8800      492
 154.9200      450
 154.9600      477
 155.0000      486
 155.0400      445
 155.0800      474
 155.1200      482
 155.1600      433
 155.2000      420
 155.2400      453
 155.2800      490
 155.3200      444
 155.3600      427
 155.4000      429
 155.4400      440
 155.4800      386
 155.5200      412
 155.5600      426
 155.6000      405
 155.6400      391
 155.6800      408
 155.7200      388
 155.7600      351
 155.8000      356
 155.8400      392
 155.8800      366
 155.9200      368
 155.9600      327
 156.0000      337
 156.0400      342
 156.0800      313
 156.1200      334
 156.1600      314
 156.2000      289
 156.2400      303
 156.2800      298
 156.3200      269
 156.3600      282
 156.4000      277
 156.4400      265
 156.4800      255
 156.5200      249
 156.5600      245
 156.6000      265
 156.6400      227
 156.6800      241
 156.7200      227
 156.7600      213
 156.8000      199
 156.8400      203
 156.8800      189
 156.9200      192
 156.9600      207
 157.0000      226
 157.0400      210
 157.0800      188
 157.1200      166
 157.1600      166
 157.2000      159
 157.2400      145
 157.2800      152
 157.3200      171
 157.3600      132
 157.4000      144
 157.4400      144
 157.4800      149
 157.5200      151
 157.5600      137
 157.6000      145
 157.6400      152
 157.6800      147
 157.7200      140
 157.7600      143
 157.8000      140
 157.8400      124
 157.8800      147
 157.9200      152
 157.9600      126
 158.0000      131
 158.0400      131
 158.0800      125
 158.1200      125
 158.1600      115
 158.2000      123
 158.2400      136
 158.2800       97
 158.3200      106
 158.3600      103
 158.4000      121
 158.4400      115
 158.4800      100
 158.5200       96
 158.5600      104
 158.6000      118
 158.6400       99
 158.6800       88
 158.7200      105
 158.7600      105
 158.8000       98
 158.8400      107
 158.8800      102
 158.9200       91
 158.9600       92
 159.0000       97
 159.0400       86
 159.0800       86
 159.1200      101
 159.1600       80
 159.2000       87
 159.2400       86
 159.2800       88
 159.3200       88
 159.3600       89
 159.4000       90
 159.4400       85
 159.4800       86
 159.5200       89
 159.5600       66
 159.6000       77
 159.6400       79
 159.6800       82
 159.7200       78
 159.7600       79
 159.8000       74
 159.8400       78
 159.8800       74
 159.9200       71
 159.9600       75
 160.0000       80

File: SDD_sample_name_001_Psi-15_20180528-025831.txt
 145.0000       59
 145.0400       49
 145.0800       50
 145.1200       50
 145.1600       46
 145.2000       39
 145.2400       48
 145.2800       46
 145.3200       50
 145.3600       51
 145.4000       41
 145.4400       46
 145.4800       39
 145.5200       41
 145.5600       45
 145.6000       50
 145.6400       54
 145.6800       52
 145.7200       56
 145.7600       43
 145.8000       47
 145.8400       53
 145.8800       54
 145.9200       56
 145.9600       55
 146.0000       53
 146.0400       40
 146.0800       41
 146.1200       46
 146.1600       58
 146.2000       47
 146.2400       33
 146.2800       44
 146.3200       48
 146.3600       49
 146.4000       41
 146.4400       47
 146.4800       45
 146.5200       44
 146.5600       57
 146.6000       51
 146.6400       52
 146.6800       48
 146.7200       54
 146.7600       51
 146.8000       44
 146.8400       46
 146.8800       41
 146.9200       47
 146.9600       49
 147.0000       39
 147.0400       58
 147.0800       65
 147.1200       45
 147.1600       57
 147.2000       46
 147.2400       48
 147.2800       51
 147.3200       56
 147.3600       52
 147.4000       51
 147.4400       41
 147.4800       49
 147.5200       46
 147.5600       47
 147.6000       47
 147.6400       43
 147.6800       49
 147.7200       48
 147.7600       55
 147.8000       56
 147.8400       54
 147.8800       61
 147.9200       51
 147.9600       44
 148.0000       45
 148.0400       46
 148.0800       72
 148.1200       41
 148.1600       50
 148.2000       40
 148.2400       48
 148.2800       49
 148.3200       57
 148.3600       48
 148.4000       59
 148.4400       52
 148.4800       65
 148.5200       46
 148.5600       54
 148.6000       61
 148.6400       55
 148.6800       52
 148.7200       55
 148.7600       41
 148.8000       47
 148.8400       53
 148.8800       49
 148.9200       56
 148.9600       51
 149.0000       50
 149.0400       58
 149.0800       51
 149.1200       67
 149.1600       63
 149.2000       55
 149.2400       62
 149.2800       53
 149.3200       65
 149.3600       50
 149.4000       59
 149.4400       54
 149.4800       47
 149.5200       44
 149.5600       68
 149.6000       60
 149.6400       59
 149.6800       51
 149.7200       61
 149.7600       66
 149.8000       66
 149.8400       56
 149.8800       67
 149.9200       59
 149.9600       59
 150.0000       71
 150.0400       66
 150.0800       68
 150.1200       54
 150.1600       64
 150.2000       64
 150.2400       66
 150.2800       61
 150.3200       47
 150.3600       67
 150.4000       58
 150.4400       45
 150.4800       58
 150.5200       72
 150.5600       72
 150.6000       43
 150.6400       67
 150.6800       73
 150.7200       55
 150.7600       64
 150.8000       70
 150.8400       72
 150.8800       67
 150.9200       84
 150.9600       74
 151.0000       57
 151.0400       75
 151.0800       67
 151.1200       64
 151.1600       65
 151.2000       85
 151.2400       99
 151.2800       76
 151.3200       62
 151.3600       92
 151.4000       75
 151.4400       82
 151.4800       80
 151.5200       76
 151.5600       90
 151.6000       81
 151.6400       93
 151.6800       88
 151.7200       94
 151.7600      100
 151.8000       76
 151.8400       85
 151.8800       91
 151.9200      100
 151.9600      107
 152.0000      123
 152.0400       94
 152.0800       93
 152.1200      114
 152.1600       94
 152.2000      127
 152.2400      116
 152.2800      112
 152.3200      126
 152.3600      117
 152.4000      130
 152.4400      125
 152.4800      132
 152.5200      152
 152.5600      135
 152.6000      133
 152.6400      160
 152.6800      141
 152.7200      164
 152.7600      144
 152.8000      165
 152.8400      162
 152.8800      166
 152.9200      150
 152.9600      186
 153.0000      180
 153.0400      186
 153.0800      208
 153.1200      200
 153.1600      179
 153.2000      185
 153.2400      213
 153.2800      226
 153.3200      203
 153.3600      208
 153.4000      250
 153.4400      210
 153.4800      226
 153.5200      242
 153.5600      223
 153.6000      270
 153.6400      252
 153.6800      285
 153.7200      279
 153.7600      270
 153.8000      315
 153.8400      301
 153.8800      325
 153.9200      295
 153.9600      345
 154.0000      336
 154.0400      351
 154.0800      373
 154.1200      352
 154.1600      362
 154.2000      357
 154.2400      376
 154.2800      362
 154.3200      386
 154.3600      391
 154.4000      387
 154.4400      404
 154.4800      405
 154.5200      425
 154.5600      393
 154.6000      416
 154.6400      424
 154.6800      456
 154.7200      425
 154.7600      430
 154.8000      408
 154.8400      465
 154.8800      448
 154.9200      443
 154.9600      438
 155.0000      436