Folder: xrd/XRD_Tool/XRD_Tool/bin/Debug (part 27)

File: SDD_sample_name_01234_Psi-30_20180602-095612.txt
 145.0000       37
 145.0400       36
 145.0800       33
 145.1200       41
 145.1600       33
 145.2000       40
 145.2400       44
 145.2800       40
 145.3200       44
 145.3600       37
 145.4000       39
 145.4400       34
 145.4800       41
 145.5200       39
 145.5600       45
 145.6000       43
 145.6400       26
 145.6800       38
 145.7200       37
 145.7600       42
 145.8000       32
 145.8400       41
 145.8800       38
 145.9200       41
 145.9600       31
 146.0000       30
 146.0400       34
 146.0800       36
 146.1200       35
 146.1600       34
 146.2000       37
 146.2400       41
 146.2800       33
 146.3200       32
 146.3600       44
 146.4000       41
 146.4400       43
 146.4800       40
 146.5200       39
 146.5600       48
 146.6000       38
 146.6400       36
 146.6800       38
 146.7200       50
 146.7600       31
 146.8000       36
 146.8400       46
 146.8800       46
 146.9200       35
 146.9600       39
 147.0000       42
 147.0400       34
 147.0800       43
 147.1200       38
 147.1600       32
 147.2000       47
 147.2400       39
 147.2800       31
 147.3200       45
 147.3600       46
 147.4000       37
 147.4400       42
 147.4800       38
 147.5200       30
 147.5600       37
 147.6000       39
 147.6400       30
 147.6800       35
 147.7200       33
 147.7600       46
 147.8000       43
 147.8400       36
 147.8800       41
 147.9200       39
 147.9600       35
 148.0000       44
 148.0400       40
 148.0800       51
 148.1200       41
 148.1600       42
 148.2000       32
 148.2400       39
 148.2800       46
 148.3200       42
 148.3600       35
 148.4000       40
 148.4400       33
 148.4800       40
 148.5200       41
 148.5600       44
 148.6000       39
 148.6400       45
 148.6800       47
 148.7200       52
 148.7600       43
 148.8000       43
 148.8400       55
 148.8800       39
 148.9200       43
 148.9600       54
 149.0000       46
 149.0400       41
 149.0800       51
 149.1200       39
 149.1600       32
 149.2000       56
 149.2400       42
 149.2800       48
 149.3200       42
 149.3600       45
 149.4000       43
 149.4400       42
 149.4800       35
 149.5200       51
 149.5600       48
 149.6000       43
 149.6400       39
 149.6800       56
 149.7200       49
 149.7600       53
 149.8000       38
 149.8400       51
 149.8800       55
 149.9200       51
 149.9600       58
 150.0000       43
 150.0400       52
 150.0800       37
 150.1200       47
 150.1600       46
 150.2000       55
 150.2400       54
 150.2800       50
 150.3200       58
 150.3600       50
 150.4000       58
 150.4400       57
 150.4800       49
 150.5200       56
 150.5600       55
 150.6000       57
 150.6400       46
 150.6800       52
 150.7200       69
 150.7600       60
 150.8000       67
 150.8400       53
 150.8800       72
 150.9200       56
 150.9600       57
 151.0000       55
 151.0400       65
 151.0800       56
 151.1200       60
 151.1600       76
 151.2000       59
 151.2400       57
 151.2800       53
 151.3200       60
 151.3600       79
 151.4000       57
 151.4400       71
 151.4800       57
 151.5200       63
 151.5600       55
 151.6000       71
 151.6400       68
 151.6800       69
 151.7200       78
 151.7600       89
 151.8000       92
 151.8400       79
 151.8800       69
 151.9200       80
 151.9600       88
 152.0000       88
 152.0400       92
 152.0800      111
 152.1200       91
 152.1600       91
 152.2000      104
 152.2400       92
 152.2800       96
 152.3200      104
 152.3600      113
 152.4000      103
 152.4400      111
 152.4800      104
 152.5200      101
 152.5600      134
 152.6000      134
 152.6400      117
 152.6800      133
 152.7200      133
 152.7600      149
 152.8000      155
 152.8400      148
 152.8800      144
 152.9200      143
 152.9600      152
 153.0000      165
 153.0400      159
 153.0800      147
 153.1200      157
 153.1600      139
 153.2000      184
 153.2400      167
 153.2800      181
 153.3200      182
 153.3600      200
 153.4000      213
 153.4400      211
 153.4800      192
 153.5200      223
 153.5600      221
 153.6000      250
 153.6400      247
 153.6800      242
 153.7200      256
 153.7600      252
 153.8000      279
 153.8400      265
 153.8800      277
 153.9200      293
 153.9600      293
 154.0000      299
 154.0400      330
 154.0800      346
 154.1200      327
 154.1600      330
 154.2000      320
 154.2400      356
 154.2800      335
 154.3200      352
 154.3600      350
 154.4000      373
 154.4400      384
 154.4800      383
 154.5200      407
 154.5600      390
 154.6000      412
 154.6400      396
 154.6800      418
 154.7200      414
 154.7600      399
 154.8000      441
 154.8400      402
 154.8800      438
 154.9200      412
 154.9600      424
 155.0000      442

File: SDD_sample_name_01234_Psi-30_20180602-101314.txt
 145.0000       24
 145.0400       39
 145.0800       42
 145.1200       34
 145.1600       34
 145.2000       41
 145.2400       34
 145.2800       36
 145.3200       40
 145.3600       44
 145.4000       28
 145.4400       36
 145.4800       32
 145.5200       51
 145.5600       39
 145.6000       40
 145.6400       27
 145.6800       37
 145.7200       38
 145.7600       36
 145.8000       48
 145.8400       38
 145.8800       40
 145.9200       44
 145.9600       30
 146.0000       42
 146.0400       31
 146.0800       48
 146.1200       45
 146.1600       32
 146.2000       54
 146.2400       27
 146.2800       50
 146.3200       43
 146.3600       37
 146.4000       42
 146.4400       40
 146.4800       38
 146.5200       25
 146.5600       27
 146.6000       45
 146.6400       28
 146.6800       40
 146.7200       34
 146.7600       35
 146.8000       40
 146.8400       22
 146.8800       38
 146.9200       37
 146.9600       42
 147.0000       37
 147.0400       33
 147.0800       44
 147.1200       39
 147.1600       40
 147.2000       41
 147.2400       46
 147.2800       37
 147.3200       40
 147.3600       38
 147.4000       48
 147.4400       37
 147.4800       33
 147.5200       45
 147.5600       31
 147.6000       37
 147.6400       50
 147.6800       37
 147.7200       41
 147.7600       42
 147.8000       47
 147.8400       37
 147.8800       40
 147.9200       43
 147.9600       33
 148.0000       37
 148.0400       41
 148.0800       49
 148.1200       39
 148.1600       39
 148.2000       38
 148.2400       41
 148.2800       35
 148.3200       54
 148.3600       31
 148.4000       44
 148.4400       35
 148.4800       48
 148.5200       37
 148.5600       43
 148.6000       27
 148.6400       43
 148.6800       39
 148.7200       49
 148.7600       48
 148.8000       42
 148.8400       47
 148.8800       48
 148.9200       40
 148.9600       44
 149.0000       40
 149.0400       35
 149.0800       45
 149.1200       44
 149.1600       48
 149.2000       44
 149.2400       51
 149.2800       41
 149.3200       50
 149.3600       33
 149.4000       51
 149.4400       36
 149.4800       46
 149.5200       44
 149.5600       50
 149.6000       43
 149.6400       57
 149.6800       52
 149.7200       51
 149.7600       49
 149.8000       37
 149.8400       35
 149.8800       49
 149.9200       36
 149.9600       53
 150.0000       42
 150.0400       51
 150.0800       41
 150.1200       42
 150.1600       61
 150.2000       53
 150.2400       46
 150.2800       51
 150.3200       50
 150.3600       53
 150.4000       40
 150.4400       52
 150.4800       59
 150.5200       59
 150.5600       52
 150.6000       48
 150.6400       48
 150.6800       63
 150.7200       51
 150.7600       57
 150.8000       51
 150.8400       59
 150.8800       46
 150.9200       83
 150.9600       54
 151.0000       63
 151.0400       48
 151.0800       61
 151.1200       73
 151.1600       55
 151.2000       65
 151.2400       60
 151.2800       66
 151.3200       68
 151.3600       55
 151.4000       69
 151.4400       72
 151.4800       59
 151.5200       82
 151.5600       63
 151.6000       83
 151.6400       65
 151.6800       65
 151.7200       91
 151.7600       84
 151.8000       79
 151.8400       67
 151.8800       86
 151.9200       90
 151.9600       90
 152.0000       87
 152.0400       91
 152.0800       97
 152.1200      100
 152.1600       96
 152.2000       99
 152.2400       96
 152.2800       86
 152.3200      109
 152.3600      115
 152.4000      108
 152.4400      106
 152.4800      105
 152.5200      130
 152.5600      118
 152.6000      117
 152.6400      115
 152.6800      103
 152.7200      127
 152.7600      141
 152.8000      150
 152.8400      131
 152.8800      140
 152.9200      138
 152.9600      136
 153.0000      140
 153.0400      175
 153.0800      185
 153.1200      188
 153.1600      161
 153.2000      178
 153.2400      176
 153.2800      189
 153.3200      199
 153.3600      185
 153.4000      211
 153.4400      220
 153.4800      201
 153.5200      201
 153.5600      236
 153.6000      205
 153.6400      236
 153.6800      239
 153.7200      257
 153.7600      254
 153.8000      289
 153.8400      245
 153.8800      266
 153.9200      320
 153.9600      280
 154.0000      322
 154.0400      331
 154.0800      309
 154.1200      321
 154.1600      341
 154.2000      354
 154.2400      343
 154.2800      361
 154.3200      350
 154.3600      340
 154.4000      388
 154.4400      415
 154.4800      354
 154.5200      366
 154.5600      407
 154.6000      386
 154.6400      399
 154.6800      388
 154.7200      405
 154.7600      415
 154.8000      459
 154.8400      433
 154.8800      387
 154.9200      415
 154.9600      479
 155.0000      419

File: SDD_sample_name_01234_Psi-30_20180602-171707.txt
 150.0000       94
 150.0200      120
 150.0400      108
 150.0600      104
 150.0800      108
 150.1000       90
 150.1200      110
 150.1400       92
 150.1600      109
 150.1800       89
 150.2000       99
 150.2200       93
 150.2400      105
 150.2600       90
 150.2800      122
 150.3000      120
 150.3200       87
 150.3400      119
 150.3600      127
 150.3800      127
 150.4000      109
 150.4200      106
 150.4400      126
 150.4600      130
 150.4800      103
 150.5000      110
 150.5200      115
 150.5400      127
 150.5600       95
 150.5800      126
 150.6000      118
 150.6200      113
 150.6400      118
 150.6600      112
 150.6800      124
 150.7000      115
 150.7200      113
 150.7400      109
 150.7600      135
 150.7800      138
 150.8000      138
 150.8200      131
 150.8400      130
 150.8600      142
 150.8800      137
 150.9000      116
 150.9200      130
 150.9400      114
 150.9600      109
 150.9800      133
 151.0000      140
 151.0200      133
 151.0400      117
 151.0600      132
 151.0800      132
 151.1000      118
 151.1200      155
 151.1400      145
 151.1600      145
 151.1800      153
 151.2000      140
 151.2200      130
 151.2400      133
 151.2600      157
 151.2800      135
 151.3000      148
 151.3200      166
 151.3400      166
 151.3600      145
 151.3800      142
 151.4000      164
 151.4200      157
 151.4400      138
 151.4600      146
 151.4800      172
 151.5000      174
 151.5200      145
 151.5400      172
 151.5600      154
 151.5800      169
 151.6000      158
 151.6200      173
 151.6400      152
 151.6600      175
 151.6800      168
 151.7000      198
 151.7200      196
 151.7400      184
 151.7600      165
 151.7800      151
 151.8000      147
 151.8200      174
 151.8400      163
 151.8600      180
 151.8800      178
 151.9000      162
 151.9200      174
 151.9400      176
 151.9600      175
 151.9800      189
 152.0000      200
 152.0200      213
 152.0400      194
 152.0600      185
 152.0800      177
 152.1000      190
 152.1200      172
 152.1400      195
 152.1600      200
 152.1800      203
 152.2000      196
 152.2200      179
 152.2400      192
 152.2600      212
 152.2800      213
 152.3000      186
 152.3200      182
 152.3400      205
 152.3600      202
 152.3800      216
 152.4000      221
 152.4200      229
 152.4400      233
 152.4600      238
 152.4800      206
 152.5000      241
 152.5200      207
 152.5400      244
 152.5600      217
 152.5800      221
 152.6000      243
 152.6200      206
 152.6400      237
 152.6600      242
 152.6800      257
 152.7000      227
 152.7200      242
 152.7400      203
 152.7600      243
 152.7800      230
 152.8000      246
 152.8200      254
 152.8400      246
 152.8600      254
 152.8800      250
 152.9000      243
 152.9200      276
 152.9400      244
 152.9600      248
 152.9800      254
 153.0000      276
 153.0200      256
 153.0400      289
 153.0600      266
 153.0800      271
 153.1000      280
 153.1200      283
 153.1400      260
 153.1600      294
 153.1800      258
 153.2000      319
 153.2200      314
 153.2400      283
 153.2600      280
 153.2800      296
 153.3000      290
 153.3200      288
 153.3400      278
 153.3600      293
 153.3800      314
 153.4000      305
 153.4200      306
 153.4400      278
 153.4600      332
 153.4800      335
 153.5000      292
 153.5200      309
 153.5400      302
 153.5600      301
 153.5800      327
 153.6000      324
 153.6200      329
 153.6400      341
 153.6600      303
 153.6800      326
 153.7000      330
 153.7200      313
 153.7400      343
 153.7600      341
 153.7800      326
 153.8000      334
 153.8200      314
 153.8400      359
 153.8600      342
 153.8800      381
 153.9000      379
 153.9200      338
 153.9400      339
 153.9600      381
 153.9800      329
 154.0000      353
 154.0200      364
 154.0400      346
 154.0600      361
 154.0800      345
 154.1000      345
 154.1200      390
 154.1400      365
 154.1600      385
 154.1800      364
 154.2000      358
 154.2200      359
 154.2400      373
 154.2600      395
 154.2800      379
 154.3000      420
 154.3200      381
 154.3400      353
 154.3600      407
 154.3800      397
 154.4000      428
 154.4200      403
 154.4400      387
 154.4600      390
 154.4800      434
 154.5000      362
 154.5200      414
 154.5400      412
 154.5600      391
 154.5800      386
 154.6000      397
 154.6200      395
 154.6400      396
 154.6600      404
 154.6800      360
 154.7000      431
 154.7200      411
 154.7400      427
 154.7600      420
 154.7800      392
 154.8000      404
 154.8200      383
 154.8400      440
 154.8600      386
 154.8800      418
 154.9000      434
 154.9200      417
 154.9400      394
 154.9600      413
 154.9800      404
 155.0000      431

File: SDD_sample_name_01234_Psi-30_20180602-173106.txt
 150.0000      104
 150.0200      107
 150.0400       92
 150.0600      100
 150.0800      100
 150.1000      101
 150.1200      105
 150.1400       89
 150.1600      101
 150.1800       99
 150.2000      104
 150.2200      116
 150.2400      105
 150.2600      112
 150.2800      114
 150.3000       84
 150.3200      112
 150.3400      105
 150.3600      114
 150.3800      118
 150.4000       98
 150.4200      109
 150.4400      125
 150.4600      123
 150.4800      123
 150.5000      121
 150.5200      105
 150.5400      121
 150.5600      106
 150.5800      130
 150.6000      141
 150.6200      141
 150.6400      121
 150.6600      132
 150.6800      121
 150.7000      101
 150.7200      139
 150.7400      132
 150.7600      131
 150.7800      141
 150.8000      142
 150.8200      133
 150.8400      123
 150.8600      139
 150.8800      146
 150.9000      127
 150.9200      121
 150.9400      139
 150.9600      123
 150.9800      126
 151.0000      129
 151.0200      136
 151.0400      131
 151.0600      125
 151.0800      144
 151.1000      155
 151.1200      134
 151.1400      122
 151.1600      143
 151.1800      130
 151.2000      145
 151.2200      139
 151.2400      153
 151.2600      151
 151.2800      153
 151.3000      130
 151.3200      150
 151.3400      172
 151.3600      160
 151.3800      147
 151.4000      149
 151.4200      133
 151.4400      151
 151.4600      135
 151.4800      207
 151.5000      165
 151.5200      147
 151.5400      161
 151.5600      156
 151.5800      176
 151.6000      149
 151.6200      184
 151.6400      164
 151.6600      145
 151.6800      168
 151.7000      169
 151.7200      189
 151.7400      179
 151.7600      166
 151.7800      163
 151.8000      202
 151.8200      180
 151.8400      190
 151.8600      188
 151.8800      192
 151.9000      206
 151.9200      187
 151.9400      198
 151.9600      166
 151.9800      194
 152.0000      200
 152.0200      182
 152.0400      191
 152.0600      193
 152.0800      184
 152.1000      198
 152.1200      173
 152.1400      193
 152.1600      206
 152.1800      203
 152.2000      211
 152.2200      193
 152.2400      207
 152.2600      207
 152.2800      211
 152.3000      207
 152.3200      243
 152.3400      250
 152.3600      221
 152.3800      200
 152.4000      221
 152.4200      224
 152.4400      222
 152.4600      211
 152.4800      208
 152.5000      229
 152.5200      210
 152.5400      238
 152.5600      219
 152.5800      232
 152.6000      221
 152.6200      223
 152.6400      207
 152.6600      216
 152.6800      236
 152.7000      221
 152.7200      226
 152.7400      230
 152.7600      229
 152.7800      243
 152.8000      267
 152.8200      258
 152.8400      247
 152.8600      246
 152.8800      237
 152.9000      289
 152.9200      242
 152.9400      268
 152.9600      295
 152.9800      274
 153.0000      261
 153.0200      294
 153.0400      226
 153.0600      271
 153.0800      281
 153.1000      278
 153.1200      288
 153.1400      253
 153.1600      298
 153.1800      261
 153.2000      292
 153.2200      277
 153.2400      287
 153.2600      316
 153.2800      276
 153.3000      290
 153.3200      284
 153.3400      280
 153.3600      261
 153.3800      284
 153.4000      284
 153.4200      294
 153.4400      308
 153.4600      317
 153.4800      320
 153.5000      331
 153.5200      312
 153.5400      315
 153.5600      315
 153.5800      305
 153.6000      322
 153.6200      314
 153.6400      319
 153.6600      339
 153.6800      321
 153.7000      338
 153.7200      337
 153.7400      327
 153.7600      329
 153.7800      343
 153.8000      317
 153.8200      341
 153.8400      356
 153.8600      333
 153.8800      330
 153.9000      361
 153.9200      341
 153.9400      369
 153.9600      365
 153.9800      360
 154.0000      326
 154.0200      360
 154.0400      345
 154.0600      336
 154.0800      382
 154.1000      365
 154.1200      332
 154.1400      355
 154.1600      379
 154.1800      374
 154.2000      400
 154.2200      357
 154.2400      395
 154.2600      347
 154.2800      373
 154.3000      411
 154.3200      360
 154.3400      375
 154.3600      375
 154.3800      397
 154.4000      358
 154.4200      383
 154.4400      367
 154.4600      384
 154.4800      376
 154.5000      385
 154.5200      424
 154.5400      419
 154.5600      393
 154.5800      373
 154.6000      385
 154.6200      420
 154.6400      427
 154.6600      366
 154.6800      385
 154.7000      403
 154.7200      434
 154.7400      416
 154.7600      371
 154.7800      408
 154.8000      434
 154.8200      414
 154.8400      366
 154.8600      411
 154.8800      418
 154.9000      418
 154.9200      434
 154.9400      417
 154.9600      398
 154.9800      410
 155.0000      435

File: SDD_sample_name_01234_Psi-30_20180602-173451.txt
 150.0000       98
 150.0200       94
 150.0400       90
 150.0600      120
 150.0800      112
 150.1000      109
 150.1200      109
 150.1400      108
 150.1600      101
 150.1800      110
 150.2000      113
 150.2200      116
 150.2400      106
 150.2600       99
 150.2800      115
 150.3000      129
 150.3200      108
 150.3400      127
 150.3600      148
 150.3800      114
 150.4000      114
 150.4200       95
 150.4400      109
 150.4600      116
 150.4800      128
 150.5000      116
 150.5200      108
 150.5400      103
 150.5600      101
 150.5800      133
 150.6000      116
 150.6200      120
 150.6400      136
 150.6600      139
 150.6800      112
 150.7000      116
 150.7200      130
 150.7400      104
 150.7600      117
 150.7800      134
 150.8000      112
 150.8200      140
 150.8400      115
 150.8600      131
 150.8800      120
 150.9000      126
 150.9200      129
 150.9400      145
 150.9600      136
 150.9800      128
 151.0000      138
 151.0200      146
 151.0400      136
 151.0600      148
 151.0800      134
 151.1000      153
 151.1200      150
 151.1400      141
 151.1600      138
 151.1800      135
 151.2000      141
 151.2200      145
 151.2400      143
 151.2600      141
 151.2800      141
 151.3000      155
 151.3200      149
 151.3400      154
 151.3600      133
 151.3800      131
 151.4000      134
 151.4200      148
 151.4400      154
 151.4600      128
 151.4800      154
 151.5000      166
 151.5200      165
 151.5400      152
 151.5600      137
 151.5800      153
 151.6000      140
 151.6200      157
 151.6400      150
 151.6600      161
 151.6800      162
 151.7000      159
 151.7200      157
 151.7400      168
 151.7600      161
 151.7800      169
 151.8000      186
 151.8200      187
 151.8400      162
 151.8600      206
 151.8800      194
 151.9000      175
 151.9200      196
 151.9400      179
 151.9600      193
 151.9800      189
 152.0000      180
 152.0200      198
 152.0400      180
 152.0600      188
 152.0800      181
 152.1000      187
 152.1200      195
 152.1400      214
 152.1600      206
 152.1800      184
 152.2000      207
 152.2200      204
 152.2400      203
 152.2600      214
 152.2800      214
 152.3000      210
 152.3200      203
 152.3400      211
 152.3600      235
 152.3800      217
 152.4000      217
 152.4200      242
 152.4400      208
 152.4600      255
 152.4800      219
 152.5000      203
 152.5200      213
 152.5400      230
 152.5600      246
 152.5800      225
 152.6000      255
 152.6200      256
 152.6400      233
 152.6600      264
 152.6800      262
 152.7000      257
 152.7200      244
 152.7400      231
 152.7600      260
 152.7800      230
 152.8000      243
 152.8200      215
 152.8400      235
 152.8600      266
 152.8800      249
 152.9000      220
 152.9200      262
 152.9400      257
 152.9600      276
 152.9800      268
 153.0000      265
 153.0200      276
 153.0400      290
 153.0600      277
 153.0800      245
 153.1000      282
 153.1200      291
 153.1400      290
 153.1600      275
 153.1800      296
 153.2000      277
 153.2200      295
 153.2400      264
 153.2600      298
 153.2800      302
 153.3000      258
 153.3200      268
 153.3400      283
 153.3600      277
 153.3800      297
 153.4000      333
 153.4200      327
 153.4400      312
 153.4600      306
 153.4800      297
 153.5000      333
 153.5200      313
 153.5400      304
 153.5600      327
 153.5800      345
 153.6000      319
 153.6200      314
 153.6400      316
 153.6600      316
 153.6800      314
 153.7000      327
 153.7200      312
 153.7400      316
 153.7600      322
 153.7800      334
 153.8000      349
 153.8200      314
 153.8400      335
 153.8600      323
 153.8800      325
 153.9000      354
 153.9200      360
 153.9400      328
 153.9600      370
 153.9800      377
 154.0000      348
 154.0200      386
 154.0400      354
 154.0600      371
 154.0800      361
 154.1000      382
 154.1200      336
 154.1400      410
 154.1600      344
 154.1800      385
 154.2000      350
 154.2200      392
 154.2400      410
 154.2600      398
 154.2800      399
 154.3000      357
 154.3200      405
 154.3400      375
 154.3600      379
 154.3800      383
 154.4000      384
 154.4200      378
 154.4400      357
 154.4600      401
 154.4800      406
 154.5000      392
 154.5200      425
 154.5400      385
 154.5600      405
 154.5800      401
 154.6000      416
 154.6200      357
 154.6400      367
 154.6600      409
 154.6800      424
 154.7000      385
 154.7200      381
 154.7400      432
 154.7600      380
 154.7800      443
 154.8000      392
 154.8200      398
 154.8400      411
 154.8600      433
 154.8800      403
 154.9000      452
 154.9200      414
 154.9400      418
 154.9600      414
 154.9800      427
 155.0000      441