Folder: xrd/XRD_Tool/XRD_Tool/bin/Debug (part 11)

File: LDA_sample_name_56789_Psi-24_20180623-122849.txt
138.0000     294
138.0800     180
138.1600     229
138.2400     177
138.3200     209
138.4000     188
138.4800     190
138.5600     270
138.6400     241
138.7200     293
138.8000     164
138.8800     324
138.9600     252
139.0400     234
139.1200     220
139.2000     194
139.2800     231
139.3600     266
139.4400     169
139.5200     245
139.6000     215
139.6800     234
139.7600     250
139.8400     195
139.9200     162
140.0000     201
140.0800     281
140.1600     282
140.2400     149
140.3200     257
140.4000     269
140.4800     185
140.5600     157
140.6400     212
140.7200     163
140.8000     123
140.8800     375
140.9600     210
141.0400     300
141.1200     209
141.2000     292
141.2800     225
141.3600     202
141.4400     285
141.5200     189
141.6000     253
141.6800     277
141.7600     126
141.8400     223
141.9200     262
142.0000     223
142.0800     264
142.1600     165
142.2400     289
142.3200     311
142.4000     173
142.4800     286
142.5600     355
142.6400     314
142.7200     247
142.8000     275
142.8800     329
142.9600     292
143.0400     341
143.1200     421
143.2000     286
143.2800     343
143.3600     355
143.4400     342
143.5200     251
143.6000     356
143.6800     275
143.7600     239
143.8400     283
143.9200     332
144.0000     195
144.0800     339
144.1600     268
144.2400     308
144.3200     297
144.4000     334
144.4800     166
144.5600     294
144.6400     205
144.7200     302
144.8000     248
144.8800     353
144.9600     308
145.0400     351
145.1200     372
145.2000     260
145.2800     282
145.3600     290
145.4400     222
145.5200     437
145.6000     351
145.6800     195
145.7600     282
145.8400     289
145.9200     299
146.0000     244
146.0800     223
146.1600     314
146.2400     350
146.3200     190
146.4000     348
146.4800     265
146.5600     332
146.6400     221
146.7200     298
146.8000     318
146.8800     260
146.9600     281
147.0400     285
147.1200     321
147.2000     282
147.2800     363
147.3600     356
147.4400     343
147.5200     305
147.6000     371
147.6800     346
147.7600     438
147.8400     270
147.9200     432
148.0000     342
148.0800     427
148.1600     359
148.2400     418
148.3200     379
148.4000     351
148.4800     379
148.5600     393
148.6400     452
148.7200     395
148.8000     407
148.8800     446
148.9600     392
149.0400     286
149.1200     441
149.2000     481
149.2800     287
149.3600     361
149.4400     412
149.5200     370
149.6000     428
149.6800     444
149.7600     348
149.8400     462
149.9200     463
150.0000     452
150.0800     478
150.1600     441
150.2400     368
150.3200     386
150.4000     448
150.4800     509
150.5600     487
150.6400     506
150.7200     566
150.8000     473
150.8800     450
150.9600     629
151.0400     574
151.1200     532
151.2000     612
151.2800     632
151.3600     630
151.4400     629
151.5200     667
151.6000     684
151.6800     641
151.7600     733
151.8400     765
151.9200     758
152.0000     840
152.0800     813
152.1600     909
152.2400     972
152.3200     880
152.4000     950
152.4800    1173
152.5600    1067
152.6400    1299
152.7200    1198
152.8000    1367
152.8800    1409
152.9600    1500
153.0400    1474
153.1200    1445
153.2000    1782
153.2800    1761
153.3600    1998
153.4400    1940
153.5200    2022
153.6000    2203
153.6800    2248
153.7600    2235
153.8400    2294
153.9200    2107
154.0000    2313
154.0800    2334
154.1600    2543
154.2400    2269
154.3200    2315
154.4000    2310
154.4800    2367
154.5600    2590
154.6400    2285
154.7200    2255
154.8000    2153
154.8800    2224
154.9600    2391
155.0400    2309
155.1200    1994
155.2000    2027
155.2800    1894
155.3600    1858
155.4400    1810
155.5200    1675
155.6000    1544
155.6800    1509
155.7600    1560
155.8400    1494
155.9200    1426
156.0000    1334
156.0800    1275
156.1600    1306
156.2400    1302
156.3200    1085
156.4000    1070
156.4800    1084
156.5600    1120
156.6400     841
156.7200     900
156.8000     843
156.8800     858
156.9600     850
157.0400     900
157.1200     621
157.2000     780
157.2800     613
157.3600     618
157.4400     643
157.5200     665
157.6000     578
157.6800     658
157.7600     604
157.8400     664
157.9200     619
158.0000     649
158.0800     547
158.1600     509
158.2400     579
158.3200     458
158.4000     557
158.4800     478
158.5600     488
158.6400     498
158.7200     527
158.8000     449
158.8800     425
158.9600     469
159.0400     450
159.1200     358
159.2000     416
159.2800     474
159.3600     389
159.4400     396
159.5200     350
159.6000     365
159.6800     310
159.7600     404
159.8400     450
159.9200     523
160.0000     368
160.0800     346
160.1600     304
160.2400     387
160.3200     304
160.4000     398
160.4800     317
160.5600     393
160.6400     271
160.7200     268
160.8000     298
160.8800     282
160.9600     376
161.0400     390
161.1200     416
161.2000     372
161.2800     312
161.3600     367
161.4400     312
161.5200     229
161.6000     371
161.6800     260
161.7600     326
161.8400     356
161.9200     266
161.9800     322

File: LDA_sample_name_56789_Psi-24_20180623-123627.txt
138.0000     237
138.0800     169
138.1600     211
138.2400     257
138.3200     218
138.4000     253
138.4800     226
138.5600     225
138.6400     234
138.7200     211
138.8000     233
138.8800     266
138.9600     224
139.0400     229
139.1200     223
139.2000     249
139.2800     238
139.3600     190
139.4400     251
139.5200     279
139.6000     220
139.6800     183
139.7600     216
139.8400     203
139.9200     209
140.0000     237
140.0800     172
140.1600     246
140.2400     329
140.3200     264
140.4000     306
140.4800     187
140.5600     331
140.6400     220
140.7200     369
140.8000     157
140.8800     199
140.9600     269
141.0400     225
141.1200     260
141.2000     220
141.2800     276
141.3600     285
141.4400     246
141.5200     273
141.6000     172
141.6800     226
141.7600     210
141.8400     226
141.9200     255
142.0000     337
142.0800     249
142.1600     240
142.2400     251
142.3200     236
142.4000     304
142.4800     418
142.5600     344
142.6400     287
142.7200     262
142.8000     282
142.8800     334
142.9600     333
143.0400     273
143.1200     254
143.2000     286
143.2800     351
143.3600     274
143.4400     292
143.5200     381
143.6000     257
143.6800     242
143.7600     270
143.8400     298
143.9200     321
144.0000     381
144.0800     296
144.1600     347
144.2400     324
144.3200     227
144.4000     329
144.4800     360
144.5600     245
144.6400     340
144.7200     264
144.8000     309
144.8800     331
144.9600     335
145.0400     310
145.1200     297
145.2000     269
145.2800     339
145.3600     334
145.4400     351
145.5200     347
145.6000     162
145.6800     267
145.7600     264
145.8400     264
145.9200     358
146.0000     303
146.0800     223
146.1600     298
146.2400     209
146.3200     208
146.4000     336
146.4800     338
146.5600     320
146.6400     376
146.7200     268
146.8000     418
146.8800     305
146.9600     264
147.0400     333
147.1200     295
147.2000     282
147.2800     289
147.3600     305
147.4400     458
147.5200     360
147.6000     400
147.6800     327
147.7600     420
147.8400     317
147.9200     324
148.0000     312
148.0800     367
148.1600     403
148.2400     317
148.3200     411
148.4000     375
148.4800     403
148.5600     368
148.6400     413
148.7200     424
148.8000     414
148.8800     313
148.9600     333
149.0400     415
149.1200     344
149.2000     396
149.2800     442
149.3600     372
149.4400     522
149.5200     387
149.6000     437
149.6800     363
149.7600     431
149.8400     376
149.9200     425
150.0000     469
150.0800     568
150.1600     509
150.2400     503
150.3200     439
150.4000     425
150.4800     499
150.5600     525
150.6400     435
150.7200     509
150.8000     517
150.8800     546
150.9600     459
151.0400     436
151.1200     562
151.2000     667
151.2800     603
151.3600     600
151.4400     656
151.5200     643
151.6000     630
151.6800     728
151.7600     668
151.8400     847
151.9200     885
152.0000     849
152.0800     927
152.1600     788
152.2400     899
152.3200    1012
152.4000     921
152.4800    1010
152.5600    1228
152.6400    1239
152.7200    1228
152.8000    1439
152.8800    1559
152.9600    1485
153.0400    1523
153.1200    1530
153.2000    1717
153.2800    1928
153.3600    1767
153.4400    1938
153.5200    2046
153.6000    2111
153.6800    2259
153.7600    2265
153.8400    2365
153.9200    2408
154.0000    2250
154.0800    2260
154.1600    2464
154.2400    2464
154.3200    2528
154.4000    2422
154.4800    2520
154.5600    2473
154.6400    2380
154.7200    2375
154.8000    2088
154.8800    2169
154.9600    2446
155.0400    2187
155.1200    2057
155.2000    1957
155.2800    1905
155.3600    1977
155.4400    1698
155.5200    1893
155.6000    1757
155.6800    1617
155.7600    1515
155.8400    1427
155.9200    1235
156.0000    1459
156.0800    1438
156.1600    1355
156.2400    1255
156.3200    1080
156.4000    1134
156.4800    1267
156.5600    1026
156.6400     980
156.7200     944
156.8000     840
156.8800     965
156.9600     823
157.0400     896
157.1200     674
157.2000     832
157.2800     669
157.3600     753
157.4400     624
157.5200     594
157.6000     656
157.6800     581
157.7600     751
157.8400     567
157.9200     603
158.0000     566
158.0800     532
158.1600     528
158.2400     596
158.3200     445
158.4000     559
158.4800     495
158.5600     499
158.6400     540
158.7200     490
158.8000     452
158.8800     548
158.9600     482
159.0400     391
159.1200     448
159.2000     411
159.2800     464
159.3600     337
159.4400     488
159.5200     473
159.6000     399
159.6800     432
159.7600     415
159.8400     448
159.9200     345
160.0000     361
160.0800     374
160.1600     338
160.2400     300
160.3200     334
160.4000     361
160.4800     375
160.5600     367
160.6400     289
160.7200     290
160.8000     347
160.8800     352
160.9600     305
161.0400     307
161.1200     331
161.2000     244
161.2800     299
161.3600     240
161.4400     307
161.5200     351
161.6000     327
161.6800     301
161.7600     430
161.8400     292
161.9200     230
161.9800     310

File: LDA_sample_name_56789_Psi-24_20180623-123825.txt
138.0000     141
138.0800     185
138.1600     158
138.2400     166
138.3200     148
138.4000     220
138.4800     171
138.5600     104
138.6400     193
138.7200     253
138.8000     174
138.8800     169
138.9600     159
139.0400     165
139.1200     224
139.2000     204
139.2800     179
139.3600     216
139.4400     270
139.5200     164
139.6000     138
139.6800     116
139.7600     206
139.8400     200
139.9200     188
140.0000     218
140.0800     226
140.1600     201
140.2400     195
140.3200     258
140.4000     194
140.4800     232
140.5600     248
140.6400     161
140.7200     271
140.8000      97
140.8800     180
140.9600     192
141.0400     147
141.1200     238
141.2000     232
141.2800     155
141.3600     200
141.4400     271
141.5200     146
141.6000     250
141.6800     268
141.7600     204
141.8400     151
141.9200     223
142.0000     191
142.0800     264
142.1600     305
142.2400     268
142.3200     197
142.4000     313
142.4800     371
142.5600     269
142.6400     395
142.7200     253
142.8000     248
142.8800     278
142.9600     217
143.0400     201
143.1200     226
143.2000     192
143.2800     233
143.3600     173
143.4400     231
143.5200     274
143.6000     313
143.6800     339
143.7600     356
143.8400     203
143.9200     174
144.0000     281
144.0800     229
144.1600     329
144.2400     270
144.3200     244
144.4000     257
144.4800     328
144.5600     223
144.6400     262
144.7200     200
144.8000     297
144.8800     250
144.9600     285
145.0400     272
145.1200     336
145.2000     274
145.2800     237
145.3600     222
145.4400     314
145.5200     236
145.6000     253
145.6800     369
145.7600     316
145.8400     286
145.9200     286
146.0000     383
146.0800     243
146.1600     247
146.2400     339
146.3200     322
146.4000     258
146.4800     267
146.5600     358
146.6400     337
146.7200     328
146.8000     285
146.8800     291
146.9600     257
147.0400     361
147.1200     213
147.2000     276
147.2800     369
147.3600     328
147.4400     258
147.5200     325
147.6000     345
147.6800     344
147.7600     311
147.8400     412
147.9200     350
148.0000     338
148.0800     324
148.1600     383
148.2400     334
148.3200     410
148.4000     328
148.4800     424
148.5600     348
148.6400     435
148.7200     451
148.8000     345
148.8800     288
148.9600     389
149.0400     353
149.1200     343
149.2000     409
149.2800     396
149.3600     314
149.4400     410
149.5200     423
149.6000     291
149.6800     304
149.7600     406
149.8400     507
149.9200     496
150.0000     451
150.0800     428
150.1600     429
150.2400     519
150.3200     434
150.4000     437
150.4800     429
150.5600     399
150.6400     443
150.7200     376
150.8000     419
150.8800     540
150.9600     523
151.0400     513
151.1200     567
151.2000     561
151.2800     626
151.3600     618
151.4400     590
151.5200     550
151.6000     660
151.6800     634
151.7600     609
151.8400     629
151.9200     844
152.0000     763
152.0800     751
152.1600     811
152.2400     828
152.3200     962
152.4000     951
152.4800     890
152.5600     942
152.6400    1062
152.7200    1146
152.8000    1197
152.8800    1260
152.9600    1290
153.0400    1351
153.1200    1441
153.2000    1709
153.2800    1690
153.3600    1817
153.4400    1801
153.5200    1833
153.6000    2003
153.6800    1998
153.7600    2176
153.8400    2074
153.9200    2210
154.0000    2119
154.0800    2232
154.1600    2187
154.2400    2358
154.3200    2286
154.4000    2277
154.4800    2290
154.5600    2335
154.6400    2109
154.7200    2205
154.8000    2021
154.8800    2159
154.9600    2176
155.0400    2256
155.1200    1883
155.2000    1956
155.2800    1768
155.3600    1681
155.4400    1660
155.5200    1831
155.6000    1478
155.6800    1588
155.7600    1405
155.8400    1449
155.9200    1236
156.0000    1215
156.0800    1298
156.1600    1098
156.2400    1275
156.3200    1026
156.4000     966
156.4800    1025
156.5600     917
156.6400     941
156.7200     940
156.8000     899
156.8800     807
156.9600     817
157.0400     841
157.1200     786
157.2000     730
157.2800     710
157.3600     701
157.4400     694
157.5200     543
157.6000     591
157.6800     660
157.7600     690
157.8400     652
157.9200     621
158.0000     711
158.0800     588
158.1600     526
158.2400     585
158.3200     562
158.4000     473
158.4800     530
158.5600     492
158.6400     515
158.7200     597
158.8000     597
158.8800     501
158.9600     540
159.0400     545
159.1200     470
159.2000     539
159.2800     528
159.3600     413
159.4400     476
159.5200     446
159.6000     458
159.6800     517
159.7600     498
159.8400     424
159.9200     384
160.0000     373
160.0800     394
160.1600     422
160.2400     344
160.3200     334
160.4000     417
160.4800     371
160.5600     391
160.6400     418
160.7200     464
160.8000     471
160.8800     357
160.9600     323
161.0400     385
161.1200     430
161.2000     331
161.2800     275
161.3600     345
161.4400     340
161.5200     345
161.6000     438
161.6800     377
161.7600     402
161.8400     430
161.9200     363
161.9800     426

File: LDA_sample_name_56789_Psi-24_20180623-124001.txt
138.0000     215
138.0800     236
138.1600     225
138.2400     248
138.3200     147
138.4000     176
138.4800     192
138.5600     229
138.6400     253
138.7200     282
138.8000     196
138.8800     182
138.9600     118
139.0400     231
139.1200     248
139.2000     273
139.2800     239
139.3600     179
139.4400     312
139.5200     172
139.6000     212
139.6800     249
139.7600     262
139.8400     222
139.9200     186
140.0000     288
140.0800     179
140.1600     251
140.2400     285
140.3200     181
140.4000     283
140.4800     251
140.5600     270
140.6400     237
140.7200     272
140.8000     146
140.8800     327
140.9600     308
141.0400     276
141.1200     248
141.2000     241
141.2800     270
141.3600     234
141.4400     254
141.5200     246
141.6000     268
141.6800     242
141.7600     258
141.8400     262
141.9200     364
142.0000     292
142.0800     264
142.1600     310
142.2400     342
142.3200     280
142.4000     312
142.4800     233
142.5600     323
142.6400     225
142.7200     346
142.8000     243
142.8800     307
142.9600     391
143.0400     363
143.1200     278
143.2000     302
143.2800     270
143.3600     331
143.4400     276
143.5200     298
143.6000     307
143.6800     304
143.7600     321
143.8400     290
143.9200     411
144.0000     439
144.0800     291
144.1600     351
144.2400     360
144.3200     323
144.4000     285
144.4800     306
144.5600     326
144.6400     405
144.7200     290
144.8000     296
144.8800     329
144.9600     339
145.0400     349
145.1200     346
145.2000     303
145.2800     309
145.3600     424
145.4400     330
145.5200     397
145.6000     337
145.6800     324
145.7600     402
145.8400     255
145.9200     444
146.0000     308
146.0800     409
146.1600     326
146.2400     335
146.3200     419
146.4000     357
146.4800     312
146.5600     380
146.6400     341
146.7200     277
146.8000     404
146.8800     390
146.9600     404
147.0400     449
147.1200     381
147.2000     387
147.2800     432
147.3600     371
147.4400     416
147.5200     402
147.6000     370
147.6800     400
147.7600     378
147.8400     484
147.9200     446
148.0000     474
148.0800     322
148.1600     449
148.2400     412
148.3200     381
148.4000     342
148.4800     506
148.5600     461
148.6400     492
148.7200     410
148.8000     471
148.8800     375
148.9600     391
149.0400     391
149.1200     526
149.2000     431
149.2800     452
149.3600     488
149.4400     397
149.5200     385
149.6000     462
149.6800     400
149.7600     470
149.8400     396
149.9200     499
150.0000     392
150.0800     498
150.1600     556
150.2400     451
150.3200     422
150.4000     549
150.4800     468
150.5600     574
150.6400     603
150.7200     548
150.8000     453
150.8800     525
150.9600     519
151.0400     573
151.1200     677
151.2000     559
151.2800     704
151.3600     556
151.4400     610
151.5200     655
151.6000     561
151.6800     704
151.7600     734
151.8400     731
151.9200     832
152.0000     817
152.0800     788
152.1600     806
152.2400     845
152.3200     885
152.4000     965
152.4800    1110
152.5600    1001
152.6400    1128
152.7200    1124
152.8000    1275
152.8800    1372
152.9600    1430
153.0400    1218
153.1200    1531
153.2000    1599
153.2800    1627
153.3600    1856
153.4400    1852
153.5200    1882
153.6000    2154
153.6800    2007
153.7600    2229
153.8400    2239
153.9200    2249
154.0000    2201
154.0800    1970
154.1600    2385
154.2400    2350
154.3200    2424
154.4000    2275
154.4800    2310
154.5600    2376
154.6400    2282
154.7200    2378
154.8000    2303
154.8800    2245
154.9600    2170
155.0400    2273
155.1200    1885
155.2000    1933
155.2800    1822
155.3600    1849
155.4400    1713
155.5200    1644
155.6000    1510
155.6800    1536
155.7600    1458
155.8400    1568
155.9200    1394
156.0000    1456
156.0800    1179
156.1600    1349
156.2400    1272
156.3200    1279
156.4000    1094
156.4800    1176
156.5600    1043
156.6400     997
156.7200     922
156.8000     974
156.8800     966
156.9600     996
157.0400     877
157.1200     714
157.2000     751
157.2800     880
157.3600     607
157.4400     706
157.5200     660
157.6000     619
157.6800     755
157.7600     674
157.8400     734
157.9200     648
158.0000     639
158.0800     579
158.1600     652
158.2400     630
158.3200     598
158.4000     652
158.4800     576
158.5600     490
158.6400     587
158.7200     528
158.8000     459
158.8800     521
158.9600     620
159.0400     556
159.1200     550
159.2000     658
159.2800     442
159.3600     552
159.4400     506
159.5200     461
159.6000     489
159.6800     462
159.7600     474
159.8400     495
159.9200     509
160.0000     379
160.0800     643
160.1600     444
160.2400     458
160.3200     534
160.4000     473
160.4800     451
160.5600     447
160.6400     455
160.7200     484
160.8000     350
160.8800     390
160.9600     414
161.0400     422
161.1200     409
161.2000     458
161.2800     425
161.3600     433
161.4400     437
161.5200     457
161.6000     365
161.6800     414
161.7600     428
161.8400     368
161.9200     428
161.9800     385

File: LDA_sample_name_56789_Psi-24_20180623-124906.txt
138.0000     246
138.0800     242
138.1600     197
138.2400     300
138.3200     390
138.4000     205
138.4800     284
138.5600     255
138.6400     313
138.7200     321
138.8000     237
138.8800     350
138.9600     286
139.0400     191
139.1200     252
139.2000     190
139.2800     210
139.3600     233
139.4400     279
139.5200     260
139.6000     240
139.6800     255
139.7600     279
139.8400     181
139.9200     117
140.0000     239
140.0800     267
140.1600     316
140.2400     267
140.3200     301
140.4000     198
140.4800     255
140.5600     216
140.6400     282
140.7200     261
140.8000     309
140.8800     317
140.9600     272
141.0400     306
141.1200     287
141.2000     326
141.2800     309
141.3600     267
141.4400     290
141.5200     208
141.6000     248
141.6800     323
141.7600     277
141.8400     295
141.9200     239
142.0000     287
142.0800     302
142.1600     397
142.2400     278
142.3200     355
142.4000     402
142.4800     410
142.5600     355
142.6400     393
142.7200     466
142.8000     321
142.8800     398
142.9600     355
143.0400     353
143.1200     350
143.2000     326
143.2800     324
143.3600     405
143.4400     367
143.5200     357
143.6000     364
143.6800     410
143.7600     264
143.8400     402
143.9200     337
144.0000     418
144.0800     316
144.1600     314
144.2400     338
144.3200     340
144.4000     364
144.4800     346
144.5600     368
144.6400     383
144.7200     332
144.8000     321
144.8800     438
144.9600     319
145.0400     363
145.1200     348
145.2000     417
145.2800     322
145.3600     352
145.4400     414
145.5200     386
145.6000     425
145.6800     387
145.7600     299
145.8400     310
145.9200     324
146.0000     402
146.0800     416
146.1600     410
146.2400     372
146.3200     463
146.4000     416
146.4800     393
146.5600     389
146.6400     368
146.7200     424
146.8000     413
146.8800     338
146.9600     319
147.0400     382
147.1200     401
147.2000     360
147.2800     371
147.3600     435
147.4400     444
147.5200     451
147.6000     422
147.6800     425
147.7600     394
147.8400     500
147.9200     342
148.0000     525
148.0800     388
148.1600     445
148.2400     410
148.3200     470
148.4000     508
148.4800     492
148.5600     490
148.6400     437
148.7200     451
148.8000     415
148.8800     450
148.9600     534
149.0400     411
149.1200     502
149.2000     564
149.2800     468
149.3600     401
149.4400     534
149.5200     483
149.6000     424
149.6800     561
149.7600     578
149.8400     521
149.9200     480
150.0000     565
150.0800     622
150.1600     402
150.2400     531
150.3200     534
150.4000     627
150.4800     518
150.5600     562
150.6400     537
150.7200     587
150.8000     522
150.8800     554
150.9600     655
151.0400     671
151.1200     648
151.2000     590
151.2800     588
151.3600     658
151.4400     724
151.5200     664
151.6000     731
151.6800     811
151.7600     765
151.8400     804
151.9200     864
152.0000     796
152.0800     838
152.1600     859
152.2400     907
152.3200     876
152.4000     954
152.4800     923
152.5600    1209
152.6400    1266
152.7200    1213
152.8000    1345
152.8800    1361
152.9600    1378
153.0400    1405
153.1200    1512
153.2000    1627
153.2800    1663
153.3600    1755
153.4400    1660
153.5200    1956
153.6000    2152
153.6800    2159
153.7600    2327
153.8400    2386
153.9200    2300
154.0000    2286
154.0800    2121
154.1600    2396
154.2400    2297
154.3200    2417
154.4000    2296
154.4800    2327
154.5600    2398
154.6400    2206
154.7200    2184
154.8000    2143
154.8800    2232
154.9600    2306
155.0400    2160
155.1200    2039
155.2000    1883
155.2800    1827
155.3600    1912
155.4400    1906
155.5200    1731
155.6000    1607
155.6800    1533
155.7600    1537
155.8400    1507
155.9200    1281
156.0000    1290
156.0800    1554
156.1600    1152
156.2400    1121
156.3200    1216
156.4000    1025
156.4800    1129
156.5600    1133
156.6400    1095
156.7200     993
156.8000     883
156.8800     924
156.9600     881
157.0400     765
157.1200     934
157.2000     785
157.2800     814
157.3600     783
157.4400     716
157.5200     690
157.6000     570
157.6800     750
157.7600     732
157.8400     729
157.9200     636
158.0000     703
158.0800     615
158.1600     636
158.2400     535
158.3200     578
158.4000     665
158.4800     610
158.5600     682
158.6400     559
158.7200     614
158.8000     602
158.8800     630
158.9600     520
159.0400     503
159.1200     571
159.2000     584
159.2800     587
159.3600     600
159.4400     469
159.5200     550
159.6000     460
159.6800     576
159.7600     556
159.8400     520
159.9200     527
160.0000     523
160.0800     529
160.1600     453
160.2400     569
160.3200     468
160.4000     479
160.4800     464
160.5600     515
160.6400     512
160.7200     523
160.8000     432
160.8800     590
160.9600     445
161.0400     458
161.1200     418
161.2000     421
161.2800     378
161.3600     581
161.4400     584
161.5200     391
161.6000     454
161.6800     416
161.7600     458
161.8400     342
161.9200     452
161.9800     417