Folder: xrd/XRD_Tool/XRD_Tool/bin/Debug (part 18)

File: SDD_sample_name_01234_Psi-0_20180527-125149.txt
 147.5000       44
 147.5200       56
 147.5400       60
 147.5600       50
 147.5800       50
 147.6000       46
 147.6200       53
 147.6400       49
 147.6600       56
 147.6800       52
 147.7000       58
 147.7200       57
 147.7400       54
 147.7600       45
 147.7800       57
 147.8000       50
 147.8200       49
 147.8400       57
 147.8600       54
 147.8800       51
 147.9000       54
 147.9200       50
 147.9400       62
 147.9600       45
 147.9800       55
 148.0000       66
 148.0200       56
 148.0400       73
 148.0600       51
 148.0800       49
 148.1000       75
 148.1200       59
 148.1400       51
 148.1600       57
 148.1800       58
 148.2000       46
 148.2200       53
 148.2400       63
 148.2600       55
 148.2800       47
 148.3000       59
 148.3200       77
 148.3400       53
 148.3600       64
 148.3800       57
 148.4000       53
 148.4200       53
 148.4400       40
 148.4600       47
 148.4800       53
 148.5000       61
 148.5200       48
 148.5400       55
 148.5600       52
 148.5800       51
 148.6000       51
 148.6200       54
 148.6400       49
 148.6600       56
 148.6800       62
 148.7000       55
 148.7200       54
 148.7400       49
 148.7600       56
 148.7800       58
 148.8000       56
 148.8200       57
 148.8400       49
 148.8600       63
 148.8800       59
 148.9000       55
 148.9200       64
 148.9400       60
 148.9600       57
 148.9800       68
 149.0000       54
 149.0200       54
 149.0400       62
 149.0600       51
 149.0800       48
 149.1000       63
 149.1200       43
 149.1400       56
 149.1600       65
 149.1800       70
 149.2000       65
 149.2200       65
 149.2400       48
 149.2600       65
 149.2800       60
 149.3000       56
 149.3200       50
 149.3400       59
 149.3600       54
 149.3800       52
 149.4000       64
 149.4200       51
 149.4400       66
 149.4600       68
 149.4800       59
 149.5000       52
 149.5200       60
 149.5400       57
 149.5600       70
 149.5800       54
 149.6000       63
 149.6200       59
 149.6400       62
 149.6600       61
 149.6800       71
 149.7000       60
 149.7200       68
 149.7400       74
 149.7600       65
 149.7800       61
 149.8000       58
 149.8200       63
 149.8400       66
 149.8600       60
 149.8800       51
 149.9000       65
 149.9200       52
 149.9400       63
 149.9600       72
 149.9800       49
 150.0000       62
 150.0200       63
 150.0400       63
 150.0600       62
 150.0800       65
 150.1000       61
 150.1200       58
 150.1400       69
 150.1600       66
 150.1800       61
 150.2000       80
 150.2200       66
 150.2400       60
 150.2600       69
 150.2800       71
 150.3000       61
 150.3200       70
 150.3400       80
 150.3600       52
 150.3800       68
 150.4000       74
 150.4200       78
 150.4400       65
 150.4600       62
 150.4800       69
 150.5000       65
 150.5200       84
 150.5400       67
 150.5600       73
 150.5800       86
 150.6000       78
 150.6200       83
 150.6400       76
 150.6600       74
 150.6800       76
 150.7000       86
 150.7200       74
 150.7400       85
 150.7600       76
 150.7800       73
 150.8000       88
 150.8200       69
 150.8400       93
 150.8600       82
 150.8800       92
 150.9000       66
 150.9200       68
 150.9400       73
 150.9600       76
 150.9800       78
 151.0000       79
 151.0200       74
 151.0400       93
 151.0600       98
 151.0800       85
 151.1000       94
 151.1200       81
 151.1400       92
 151.1600       84
 151.1800       81
 151.2000       92
 151.2200       89
 151.2400       86
 151.2600       86
 151.2800       72
 151.3000       84
 151.3200       81
 151.3400       92
 151.3600      101
 151.3800      102
 151.4000       94
 151.4200       90
 151.4400       99
 151.4600      103
 151.4800       93
 151.5000       95
 151.5200      101
 151.5400       84
 151.5600       86
 151.5800      106
 151.6000       96
 151.6200      108
 151.6400       91
 151.6600       84
 151.6800       96
 151.7000       92
 151.7200       99
 151.7400      105
 151.7600      101
 151.7800      104
 151.8000      107
 151.8200       98
 151.8400      101
 151.8600      111
 151.8800      100
 151.9000      107
 151.9200      107
 151.9400      115
 151.9600       88
 151.9800      128
 152.0000      106
 152.0200      125
 152.0400      111
 152.0600      118
 152.0800      123
 152.1000      140
 152.1200      115
 152.1400      110
 152.1600      115
 152.1800      125
 152.2000      123
 152.2200      130
 152.2400      128
 152.2600      138
 152.2800      148
 152.3000      116
 152.3200      124
 152.3400      134
 152.3600      144
 152.3800      130
 152.4000      136
 152.4200      140
 152.4400      137
 152.4600      154
 152.4800      152
 152.5000      157

File: SDD_sample_name_01234_Psi-0_20180602-095443.txt
 145.0000       42
 145.0400       32
 145.0800       38
 145.1200       28
 145.1600       24
 145.2000       37
 145.2400       42
 145.2800       47
 145.3200       46
 145.3600       45
 145.4000       33
 145.4400       34
 145.4800       29
 145.5200       33
 145.5600       48
 145.6000       35
 145.6400       34
 145.6800       33
 145.7200       29
 145.7600       36
 145.8000       26
 145.8400       36
 145.8800       42
 145.9200       40
 145.9600       43
 146.0000       28
 146.0400       29
 146.0800       48
 146.1200       33
 146.1600       43
 146.2000       32
 146.2400       41
 146.2800       42
 146.3200       40
 146.3600       35
 146.4000       44
 146.4400       45
 146.4800       28
 146.5200       45
 146.5600       43
 146.6000       37
 146.6400       50
 146.6800       35
 146.7200       46
 146.7600       55
 146.8000       36
 146.8400       43
 146.8800       33
 146.9200       36
 146.9600       30
 147.0000       43
 147.0400       33
 147.0800       39
 147.1200       38
 147.1600       34
 147.2000       42
 147.2400       46
 147.2800       29
 147.3200       38
 147.3600       37
 147.4000       30
 147.4400       34
 147.4800       29
 147.5200       43
 147.5600       38
 147.6000       25
 147.6400       41
 147.6800       39
 147.7200       41
 147.7600       33
 147.8000       43
 147.8400       43
 147.8800       51
 147.9200       47
 147.9600       54
 148.0000       52
 148.0400       50
 148.0800       45
 148.1200       34
 148.1600       38
 148.2000       52
 148.2400       45
 148.2800       42
 148.3200       41
 148.3600       37
 148.4000       31
 148.4400       42
 148.4800       49
 148.5200       42
 148.5600       56
 148.6000       40
 148.6400       36
 148.6800       43
 148.7200       52
 148.7600       49
 148.8000       41
 148.8400       57
 148.8800       54
 148.9200       57
 148.9600       38
 149.0000       51
 149.0400       58
 149.0800       45
 149.1200       38
 149.1600       49
 149.2000       50
 149.2400       55
 149.2800       58
 149.3200       50
 149.3600       62
 149.4000       50
 149.4400       43
 149.4800       48
 149.5200       44
 149.5600       44
 149.6000       59
 149.6400       32
 149.6800       44
 149.7200       57
 149.7600       51
 149.8000       43
 149.8400       59
 149.8800       54
 149.9200       62
 149.9600       49
 150.0000       58
 150.0400       55
 150.0800       51
 150.1200       68
 150.1600       54
 150.2000       54
 150.2400       57
 150.2800       56
 150.3200       45
 150.3600       64
 150.4000       66
 150.4400       66
 150.4800       77
 150.5200       75
 150.5600       64
 150.6000       52
 150.6400       50
 150.6800       75
 150.7200       73
 150.7600       55
 150.8000       55
 150.8400       57
 150.8800       74
 150.9200       65
 150.9600       71
 151.0000       60
 151.0400       75
 151.0800       77
 151.1200       89
 151.1600       72
 151.2000       94
 151.2400       96
 151.2800       71
 151.3200       83
 151.3600       73
 151.4000       75
 151.4400       77
 151.4800       83
 151.5200       91
 151.5600       92
 151.6000       97
 151.6400       81
 151.6800       98
 151.7200       98
 151.7600       98
 151.8000       95
 151.8400       73
 151.8800       95
 151.9200      117
 151.9600      111
 152.0000      101
 152.0400      109
 152.0800      120
 152.1200      106
 152.1600      113
 152.2000      141
 152.2400      128
 152.2800      112
 152.3200      120
 152.3600      121
 152.4000      153
 152.4400      131
 152.4800      148
 152.5200      128
 152.5600      144
 152.6000      156
 152.6400      166
 152.6800      147
 152.7200      160
 152.7600      183
 152.8000      185
 152.8400      170
 152.8800      175
 152.9200      199
 152.9600      211
 153.0000      217
 153.0400      211
 153.0800      209
 153.1200      225
 153.1600      223
 153.2000      248
 153.2400      239
 153.2800      251
 153.3200      266
 153.3600      267
 153.4000      301
 153.4400      294
 153.4800      299
 153.5200      282
 153.5600      284
 153.6000      284
 153.6400      358
 153.6800      332
 153.7200      330
 153.7600      342
 153.8000      341
 153.8400      371
 153.8800      380
 153.9200      383
 153.9600      374
 154.0000      431
 154.0400      414
 154.0800      410
 154.1200      438
 154.1600      444
 154.2000      452
 154.2400      454
 154.2800      418
 154.3200      471
 154.3600      439
 154.4000      442
 154.4400      477
 154.4800      476
 154.5200      456
 154.5600      481
 154.6000      479
 154.6400      471
 154.6800      482
 154.7200      505
 154.7600      457
 154.8000      473
 154.8400      445
 154.8800      469
 154.9200      464
 154.9600      491
 155.0000      472

File: SDD_sample_name_01234_Psi-0_20180602-101145.txt
 145.0000       35
 145.0400       27
 145.0800       30
 145.1200       40
 145.1600       44
 145.2000       40
 145.2400       38
 145.2800       43
 145.3200       30
 145.3600       35
 145.4000       42
 145.4400       47
 145.4800       28
 145.5200       53
 145.5600       31
 145.6000       33
 145.6400       25
 145.6800       36
 145.7200       38
 145.7600       54
 145.8000       50
 145.8400       34
 145.8800       40
 145.9200       46
 145.9600       43
 146.0000       55
 146.0400       40
 146.0800       40
 146.1200       41
 146.1600       34
 146.2000       37
 146.2400       41
 146.2800       41
 146.3200       40
 146.3600       38
 146.4000       55
 146.4400       42
 146.4800       50
 146.5200       31
 146.5600       42
 146.6000       48
 146.6400       42
 146.6800       40
 146.7200       51
 146.7600       43
 146.8000       47
 146.8400       35
 146.8800       38
 146.9200       42
 146.9600       39
 147.0000       35
 147.0400       43
 147.0800       34
 147.1200       40
 147.1600       36
 147.2000       43
 147.2400       27
 147.2800       39
 147.3200       45
 147.3600       52
 147.4000       42
 147.4400       43
 147.4800       61
 147.5200       46
 147.5600       36
 147.6000       47
 147.6400       49
 147.6800       54
 147.7200       36
 147.7600       44
 147.8000       50
 147.8400       38
 147.8800       42
 147.9200       36
 147.9600       34
 148.0000       54
 148.0400       51
 148.0800       47
 148.1200       43
 148.1600       38
 148.2000       48
 148.2400       40
 148.2800       51
 148.3200       26
 148.3600       53
 148.4000       50
 148.4400       49
 148.4800       44
 148.5200       25
 148.5600       54
 148.6000       42
 148.6400       40
 148.6800       37
 148.7200       49
 148.7600       39
 148.8000       48
 148.8400       40
 148.8800       47
 148.9200       42
 148.9600       54
 149.0000       37
 149.0400       35
 149.0800       42
 149.1200       40
 149.1600       47
 149.2000       50
 149.2400       44
 149.2800       49
 149.3200       45
 149.3600       56
 149.4000       46
 149.4400       53
 149.4800       49
 149.5200       52
 149.5600       50
 149.6000       48
 149.6400       57
 149.6800       36
 149.7200       44
 149.7600       59
 149.8000       40
 149.8400       54
 149.8800       45
 149.9200       45
 149.9600       46
 150.0000       64
 150.0400       62
 150.0800       52
 150.1200       64
 150.1600       49
 150.2000       37
 150.2400       52
 150.2800       52
 150.3200       61
 150.3600       68
 150.4000       65
 150.4400       53
 150.4800       66
 150.5200       59
 150.5600       50
 150.6000       64
 150.6400       61
 150.6800       74
 150.7200       80
 150.7600       73
 150.8000       71
 150.8400       79
 150.8800       57
 150.9200       84
 150.9600       83
 151.0000       65
 151.0400       73
 151.0800       74
 151.1200       66
 151.1600       62
 151.2000       92
 151.2400       68
 151.2800       83
 151.3200       82
 151.3600       75
 151.4000       86
 151.4400       80
 151.4800       85
 151.5200       94
 151.5600       81
 151.6000       89
 151.6400       88
 151.6800       93
 151.7200      103
 151.7600       82
 151.8000       96
 151.8400       89
 151.8800      101
 151.9200       94
 151.9600      110
 152.0000       98
 152.0400      111
 152.0800      118
 152.1200      105
 152.1600      106
 152.2000      129
 152.2400      109
 152.2800      140
 152.3200      120
 152.3600      129
 152.4000      122
 152.4400      119
 152.4800      124
 152.5200      131
 152.5600      160
 152.6000      146
 152.6400      141
 152.6800      164
 152.7200      140
 152.7600      163
 152.8000      158
 152.8400      185
 152.8800      177
 152.9200      191
 152.9600      182
 153.0000      205
 153.0400      227
 153.0800      188
 153.1200      207
 153.1600      227
 153.2000      210
 153.2400      249
 153.2800      228
 153.3200      271
 153.3600      295
 153.4000      276
 153.4400      276
 153.4800      291
 153.5200      309
 153.5600      330
 153.6000      321
 153.6400      341
 153.6800      323
 153.7200      361
 153.7600      326
 153.8000      395
 153.8400      345
 153.8800      379
 153.9200      373
 153.9600      377
 154.0000      404
 154.0400      432
 154.0800      399
 154.1200      436
 154.1600      430
 154.2000      440
 154.2400      446
 154.2800      403
 154.3200      448
 154.3600      457
 154.4000      486
 154.4400      427
 154.4800      472
 154.5200      467
 154.5600      456
 154.6000      498
 154.6400      470
 154.6800      472
 154.7200      477
 154.7600      470
 154.8000      489
 154.8400      473
 154.8800      446
 154.9200      477
 154.9600      470
 155.0000      437

File: SDD_sample_name_01234_Psi-0_20180602-101616.txt
 145.0000       37
 145.0000       37
 145.0400       42
 145.0400       42
 145.0800       38
 145.0800       38
 145.1200       41
 145.1200       41
 145.1600       49
 145.1600       49
 145.2000       46
 145.2000       46
 145.2400       48
 145.2400       48
 145.2800       39
 145.2800       39
 145.3200       47
 145.3200       47
 145.3600       43
 145.3600       43
 145.4000       45
 145.4000       45
 145.4400       34
 145.4400       34
 145.4800       31
 145.4800       31
 145.5200       46
 145.5200       46
 145.5600       51
 145.5600       51
 145.6000       50
 145.6000       50
 145.6400       47
 145.6400       47
 145.6800       29
 145.6800       29
 145.7200       36
 145.7200       36
 145.7600       35
 145.7600       35
 145.8000       40
 145.8000       40
 145.8400       40
 145.8400       40
 145.8800       38
 145.8800       38
 145.9200       41
 145.9200       41
 145.9600       27
 145.9600       27
 146.0000       50
 146.0000       50
 146.0400       46
 146.0400       46
 146.0800       44
 146.0800       44
 146.1200       37
 146.1200       37
 146.1600       52
 146.1600       52
 146.2000       50
 146.2000       50
 146.2400       44
 146.2400       44
 146.2800       47
 146.2800       47
 146.3200       42
 146.3200       42
 146.3600       41
 146.3600       41
 146.4000       35
 146.4000       35
 146.4400       28
 146.4400       28
 146.4800       45
 146.4800       45
 146.5200       36
 146.5200       36
 146.5600       44
 146.5600       44
 146.6000       41
 146.6400       40
 146.6200       42
 146.6600       37
 146.6600       37
 146.7000       44
 146.7000       44
 146.7400       53
 146.7400       53
 146.7800       39
 146.7800       39
 146.8200       43
 146.8200       43
 146.8600       39
 146.8600       39
 146.9000       40
 146.9000       40
 146.9400       32
 146.9400       32
 146.9800       32
 146.9800       32
 147.0200       32
 147.0200       32
 147.0600       37
 147.0600       37
 147.1000       49
 147.1000       49
 147.1400       37
 147.1400       37
 147.1800       56
 147.1800       56
 147.2200       30
 147.2200       30
 147.2600       40
 147.2600       40
 147.3000       49
 147.3000       49
 147.3400       53
 147.3400       53
 147.3800       43
 147.3800       43
 147.4200       40
 147.4200       40
 147.4600       44
 147.4600       44
 147.5000       45
 147.5000       45
 147.5400       45
 147.5400       45
 147.5800       46
 147.5800       46
 147.6200       35
 147.6200       35
 147.6600       40
 147.6600       40
 147.7000       49
 147.7000       49
 147.7400       42
 147.7400       42
 147.7800       33
 147.7800       33
 147.8200       41
 147.8200       41
 147.8600       53
 147.8600       53
 147.9000       35
 147.9000       35
 147.9400       44
 147.9400       44
 147.9800       45
 147.9800       45
 148.0200       51
 148.0200       51
 148.0600       38
 148.0600       38
 148.1000       41
 148.1000       41
 148.1400       45
 148.1400       45
 148.1800       53
 148.1800       53
 148.2200       45
 148.2200       45
 148.2600       51
 148.2600       51
 148.3000       50
 148.3000       50
 148.3400       44
 148.3400       44
 148.3800       43
 148.3800       43
 148.4200       55
 148.4200       55
 148.4600       31
 148.4600       31
 148.5000       48
 148.5000       48
 148.5400       54
 148.5400       54
 148.5800       47
 148.5800       47
 148.6200       62
 148.6200       62
 148.6600       50
 148.6600       50
 148.7000       29
 148.7400       38
 148.7200       49
 148.7600       32
 148.7600       32
 148.8000       33
 148.8000       33
 148.8400       53
 148.8400       53
 148.8800       50
 148.8800       50
 148.9200       47
 148.9200       47
 148.9600       36
 148.9600       36
 149.0000       60
 149.0000       60
 149.0400       40
 149.0400       40
 149.0800       44
 149.0800       44
 149.1200       56
 149.1200       56
 149.1600       33
 149.1600       33
 149.2000       50
 149.2000       50
 149.2400       48
 149.2400       48
 149.2800       50
 149.2800       50
 149.3200       47
 149.3600       53
 149.3400       48
 149.3800       36
 149.3800       36
 149.4200       44
 149.4200       44
 149.4600       64
 149.4600       64
 149.5000       48
 149.5000       48
 149.5400       46
 149.5400       46
 149.5800       53
 149.5800       53
 149.6200       57
 149.6200       57
 149.6600       52
 149.6600       52
 149.7000       54
 149.7000       54
 149.7400       53
 149.7400       53
 149.7800       56
 149.7800       56
 149.8200       62
 149.8200       62
 149.8600       61
 149.8600       61
 149.9000       45
 149.9000       45
 149.9400       46
 149.9400       46
 149.9800       55
 149.9800       55
 150.0000       70

File: SDD_sample_name_01234_Psi-0_20180602-102913.txt
 145.0000       37
 145.0200       32
 145.0400       52
 145.0600       37
 145.0800       39
 145.1000       46
 145.1200       42
 145.1400       44
 145.1600       44
 145.1800       27
 145.2000       34
 145.2200       40
 145.2400       46
 145.2600       41
 145.2800       36
 145.3000       33
 145.3200       43
 145.3400       34
 145.3600       48
 145.3800       35
 145.4000       42
 145.4200       42
 145.4400       29
 145.4600       33
 145.4800       32
 145.5000       49
 145.5200       27
 145.5400       47
 145.5600       33
 145.5800       38
 145.6000       36
 145.6200       47
 145.6400       40
 145.6600       39
 145.6800       28
 145.7000       38
 145.7200       52
 145.7400       50
 145.7600       52
 145.7800       45
 145.8000       35
 145.8200       37
 145.8400       45
 145.8600       40
 145.8800       50
 145.9000       41
 145.9200       41
 145.9400       38
 145.9600       30
 145.9800       41
 146.0000       39
 146.0200       41
 146.0400       36
 146.0600       37
 146.0800       40
 146.1000       39
 146.1200       42
 146.1400       41
 146.1600       32
 146.1800       52
 146.2000       47
 146.2200       52
 146.2400       37
 146.2600       41
 146.2800       54
 146.3000       42
 146.3200       49
 146.3400       35
 146.3600       35
 146.3800       44
 146.4000       49
 146.4200       32
 146.4400       43
 146.4600       43
 146.4800       42
 146.5000       33
 146.5200       33
 146.5400       40
 146.5600       37
 146.5800       44
 146.6000       44
 146.6200       36
 146.6400       37
 146.6600       42
 146.6800       41
 146.7000       39
 146.7200       51
 146.7400       43
 146.7600       33
 146.7800       50
 146.8000       52
 146.8200       41
 146.8400       54
 146.8600       45
 146.8800       37
 146.9000       43
 146.9200       42
 146.9400       40
 146.9600       31
 146.9800       41
 147.0000       39
 147.0200       38
 147.04