Folder: xrd/XRD_Tool/XRD_Tool/bin/Debug (part 19)

File: SDD_sample_name_01234_Psi-0_20180602-103141.txt
 145.0000       30
 145.0400       37
 145.0800       40
 145.1200       41
 145.1600       31
 145.2000       42
 145.2400       41
 145.2800       43
 145.3200       36
 145.3600       36
 145.4000       33
 145.4400       37
 145.4800       48
 145.5200       39
 145.5600       30
 145.6000       34
 145.6400       34
 145.6800       38
 145.7200       37
 145.7600       49
 145.8000       47
 145.8400       32
 145.8800       32
 145.9200       29
 145.9600       44
 146.0000       44
 146.0400       51
 146.0800       48
 146.1200       43
 146.1600       48
 146.2000       42
 146.2400       39
 146.2800       40
 146.3200       43
 146.3600       45
 146.4000       37
 146.4400       40
 146.4800       38
 146.5200       40
 146.5600       42
 146.6000       33
 146.6400       34
 146.6800       35
 146.7200       51
 146.7600       46
 146.8000       43
 146.8400       33
 146.8800       30
 146.9200       40
 146.9600       31
 147.0000       40
 147.0400       50
 147.0800       34
 147.1200       47
 147.1600       43
 147.2000       34
 147.2400       41
 147.2800       35
 147.3200       41
 147.3600       44
 147.4000       51
 147.4400       35
 147.4800       38
 147.5200       49
 147.5600       46
 147.6000       40
 147.6400       47
 147.6800       40
 147.7200       55
 147.7600       40
 147.8000       43
 147.8400       47
 147.8800       50
 147.9200       42
 147.9600       52
 148.0000       51
 148.0400       58
 148.0800       44
 148.1200       43
 148.1600       40
 148.2000       55
 148.2400       39
 148.2800       41
 148.3200       43
 148.3600       37
 148.4000       56
 148.4400       39
 148.4800       42
 148.5200       37
 148.5600       44
 148.6000       38
 148.6400       46
 148.6800       49
 148.7200       36
 148.7600       45
 148.8000       36
 148.8400       52
 148.8800       37
 148.9200       51
 148.9600       47
 149.0000       44
 149.0400       54
 149.0800       35
 149.1200       53
 149.1600       41
 149.2000       42
 149.2400       38
 149.2800       55
 149.3200       43
 149.3600       52
 149.4000       55
 149.4400       49
 149.4800       49
 149.5200       44
 149.5600       46
 149.6000       45
 149.6400       52
 149.6800       52
 149.7200       44
 149.7600       47
 149.8000       53
 149.8400       50
 149.8800       57
 149.9200       52
 149.9600       48
 150.0000       47
 150.0400       44
 150.0800       50
 150.1200       57
 150.1600       60
 150.2000       63
 150.2400       59
 150.2800       56
 150.3200       69
 150.3600       69
 150.4000       68
 150.4400       60
 150.4800       56
 150.5200       78
 150.5600       57
 150.6000       62
 150.6400       60
 150.6800       71
 150.7200       59
 150.7600       46
 150.8000       79
 150.8400       56
 150.8800       63
 150.9200       71
 150.9600       54
 151.0000       60
 151.0400       66
 151.0800       70
 151.1200       54
 151.1600       74
 151.2000       81
 151.2400       79
 151.2800       83
 151.3200       87
 151.3600       82
 151.4000       85
 151.4400       76
 151.4800       84
 151.5200       99
 151.5600       82
 151.6000       87
 151.6400      101
 151.6800      116
 151.7200       97
 151.7600      109
 151.8000      104
 151.8400      121
 151.8800      124
 151.9200      107
 151.9600      104
 152.0000      102
 152.0400      108
 152.0800      120
 152.1200      129
 152.1600      126
 152.2000      108
 152.2400      114
 152.2800      118
 152.3200      112
 152.3600      146
 152.4000      141
 152.4400      146
 152.4800      151
 152.5200      155
 152.5600      133
 152.6000      128
 152.6400      148
 152.6800      159
 152.7200      163
 152.7600      179
 152.8000      191
 152.8400      180
 152.8800      174
 152.9200      179
 152.9600      168
 153.0000      207
 153.0400      213
 153.0800      216
 153.1200      197
 153.1600      256
 153.2000      246
 153.2400      216
 153.2800      255
 153.3200      282
 153.3600      249
 153.4000      261
 153.4400      266
 153.4800      291
 153.5200      305
 153.5600      286
 153.6000      325
 153.6400      315
 153.6800      365
 153.7200      357
 153.7600      365
 153.8000      379
 153.8400      353
 153.8800      368
 153.9200      392
 153.9600      413
 154.0000      418
 154.0400      418
 154.0800      426
 154.1200      435
 154.1600      429
 154.2000      421
 154.2400      458
 154.2800      424
 154.3200      438
 154.3600      462
 154.4000      452
 154.4400      471
 154.4800      486
 154.5200      514
 154.5600      491
 154.6000      471
 154.6400      493
 154.6800      492
 154.7200      453
 154.7600      482
 154.8000      453
 154.8400      489
 154.8800      443
 154.9200      475
 154.9600      477
 155.0000      469

File: SDD_sample_name_01234_Psi-0_20180602-103331.txt
 145.0000       30
 145.0400       23
 145.0800       36
 145.1200       40
 145.1600       37
 145.2000       32
 145.2400       42
 145.2800       45
 145.3200       31
 145.3600       45
 145.4000       46
 145.4400       40
 145.4800       37
 145.5200       36
 145.5600       33
 145.6000       40
 145.6400       43
 145.6800       42
 145.7200       46
 145.7600       29
 145.8000       43
 145.8400       32
 145.8800       33
 145.9200       36
 145.9600       36
 146.0000       35
 146.0400       39
 146.0800       37
 146.1200       42
 146.1600       37
 146.2000       44
 146.2400       32
 146.2800       37
 146.3200       28
 146.3600       32
 146.4000       47
 146.4400       43
 146.4800       42
 146.5200       51
 146.5600       44
 146.6000       44
 146.6400       28
 146.6800       34
 146.7200       34
 146.7600       38
 146.8000       47
 146.8400       40
 146.8800       34
 146.9200       43
 146.9600       36
 147.0000       44
 147.0400       43
 147.0800       37
 147.1200       31
 147.1600       29
 147.2000       46
 147.2400       30
 147.2800       46
 147.3200       35
 147.3600       37
 147.4000       29
 147.4400       55
 147.4800       37
 147.5200       47
 147.5600       43
 147.6000       48
 147.6400       35
 147.6800       38
 147.7200       40
 147.7600       41
 147.8000       43
 147.8400       52
 147.8800       31
 147.9200       38
 147.9600       46
 148.0000       40
 148.0400       40
 148.0800       46
 148.1200       47
 148.1600       53
 148.2000       52
 148.2400       38
 148.2800       46
 148.3200       56
 148.3600       41
 148.4000       42
 148.4400       36
 148.4800       43
 148.5200       48
 148.5600       51
 148.6000       42
 148.6400       40
 148.6800       47
 148.7200       34
 148.7600       49
 148.8000       39
 148.8400       59
 148.8800       44
 148.9200       48
 148.9600       41
 149.0000       54
 149.0400       34
 149.0800       43
 149.1200       41
 149.1600       41
 149.2000       32
 149.2400       52
 149.2800       52
 149.3200       43
 149.3600       48
 149.4000       54
 149.4400       44
 149.4800       56
 149.5200       45
 149.5600       52
 149.6000       53
 149.6400       57
 149.6800       49
 149.7200       56
 149.7600       47
 149.8000       51
 149.8400       52
 149.8800       51
 149.9200       61
 149.9600       62
 150.0000       62
 150.0400       45
 150.0800       51
 150.1200       45
 150.1600       57
 150.2000       53
 150.2400       68
 150.2800       69
 150.3200       46
 150.3600       56
 150.4000       73
 150.4400       38
 150.4800       50
 150.5200       68
 150.5600       60
 150.6000       57
 150.6400       55
 150.6800       60
 150.7200       68
 150.7600       73
 150.8000       55
 150.8400       61
 150.8800       70
 150.9200       66
 150.9600       74
 151.0000       87
 151.0400       81
 151.0800       93
 151.1200       77
 151.1600       90
 151.2000       66
 151.2400       72
 151.2800       72
 151.3200       92
 151.3600       76
 151.4000       79
 151.4400       88
 151.4800       88
 151.5200       85
 151.5600       89
 151.6000       88
 151.6400       85
 151.6800       76
 151.7200       93
 151.7600       75
 151.8000       98
 151.8400       97
 151.8800      112
 151.9200      103
 151.9600      109
 152.0000      111
 152.0400       93
 152.0800      111
 152.1200      112
 152.1600      130
 152.2000      125
 152.2400      121
 152.2800      134
 152.3200      114
 152.3600      148
 152.4000      152
 152.4400      127
 152.4800      140
 152.5200      171
 152.5600      145
 152.6000      159
 152.6400      165
 152.6800      158
 152.7200      151
 152.7600      182
 152.8000      193
 152.8400      205
 152.8800      197
 152.9200      193
 152.9600      184
 153.0000      187
 153.0400      194
 153.0800      221
 153.1200      231
 153.1600      232
 153.2000      225
 153.2400      257
 153.2800      275
 153.3200      277
 153.3600      279
 153.4000      293
 153.4400      295
 153.4800      282
 153.5200      278
 153.5600      313
 153.6000      325
 153.6400      317
 153.6800      365
 153.7200      352
 153.7600      351
 153.8000      362
 153.8400      334
 153.8800      400
 153.9200      376
 153.9600      364
 154.0000      421
 154.0400      389
 154.0800      390
 154.1200      448
 154.1600      443
 154.2000      456
 154.2400      455
 154.2800      457
 154.3200      464
 154.3600      464
 154.4000      470
 154.4400      467
 154.4800      482
 154.5200      454
 154.5600      531
 154.6000      451
 154.6400      514
 154.6800      464
 154.7200      498
 154.7600      476
 154.8000      473
 154.8400      489
 154.8800      524
 154.9200      462
 154.9600      463
 155.0000      452

File: SDD_sample_name_01234_Psi-0_20180602-104814.txt
 145.0000       42
 145.0400       43
 145.0800       47
 145.1200       44
 145.1600       50
 145.2000       35
 145.2400       35
 145.2800       33
 145.3200       32
 145.3600       46
 145.4000       39
 145.4400       43
 145.4800       34
 145.5200       34
 145.5600       42
 145.6000       41
 145.6400       35
 145.6800       33
 145.7200       38
 145.7600       39
 145.8000       49
 145.8400       36
 145.8800       33
 145.9200       42
 145.9600       41
 146.0000       52
 146.0400       33
 146.0800       34
 146.1200       33
 146.1600       31
 146.2000       39
 146.2400       28
 146.2800       45
 146.3200       43
 146.3600       47
 146.4000       41
 146.4400       41
 146.4800       27
 146.5200       32
 146.5600       39
 146.6000       41
 146.6400       31
 146.6800       44
 146.7200       34
 146.7600       35
 146.8000       39
 146.8400       39
 146.8800       37
 146.9200       41
 146.9600       48
 147.0000       45
 147.0400       43
 147.0800       49
 147.1200       44
 147.1600       39
 147.2000       40
 147.2400       29
 147.2800       63
 147.3200       35
 147.3600       42
 147.4000       44
 147.4400       49
 147.4800       37
 147.5200       54
 147.5600       47
 147.6000       40
 147.6400       54
 147.6800       25
 147.7200       50
 147.7600       31
 147.8000       44
 147.8400       47
 147.8800       37
 147.9200       38
 147.9600       58
 148.0000       41
 148.0400       36
 148.0800       33
 148.1200       42
 148.1600       42
 148.2000       50
 148.2400       47
 148.2800       38
 148.3200       45
 148.3600       55
 148.4000       40
 148.4400       59
 148.4800       48
 148.5200       47
 148.5600       43
 148.6000       43
 148.6400       56
 148.6800       42
 148.7200       51
 148.7600       53
 148.8000       37
 148.8400       48
 148.8800       57
 148.9200       39
 148.9600       41
 149.0000       57
 149.0400       49
 149.0800       49
 149.1200       43
 149.1600       57
 149.2000       47
 149.2400       42
 149.2800       51
 149.3200       59
 149.3600       52
 149.4000       38
 149.4400       54
 149.4800       43
 149.5200       53
 149.5600       52
 149.6000       51
 149.6400       59
 149.6800       60
 149.7200       51
 149.7600       50
 149.8000       49
 149.8400       57
 149.8800       61
 149.9200       54
 149.9600       55
 150.0000       46
 150.0400       56
 150.0800       62
 150.1200       62
 150.1600       47
 150.2000       60
 150.2400       60
 150.2800       48
 150.3200       62
 150.3600       76
 150.4000       55
 150.4400       64
 150.4800       78
 150.5200       63
 150.5600       73
 150.6000       53
 150.6400       63
 150.6800       67
 150.7200       62
 150.7600       60
 150.8000       66
 150.8400       72
 150.8800       63
 150.9200       82
 150.9600       68
 151.0000       51
 151.0400       69
 151.0800       65
 151.1200       69
 151.1600       66
 151.2000       68
 151.2400       85
 151.2800       85
 151.3200       70
 151.3600       84
 151.4000       91
 151.4400       93
 151.4800       88
 151.5200       82
 151.5600       96
 151.6000       78
 151.6400       77
 151.6800       74
 151.7200       83
 151.7600       91
 151.8000       97
 151.8400       90
 151.8800      109
 151.9200       91
 151.9600      114
 152.0000      123
 152.0400      109
 152.0800      118
 152.1200      104
 152.1600      140
 152.2000      120
 152.2400      102
 152.2800      118
 152.3200      126
 152.3600      135
 152.4000      136
 152.4400      144
 152.4800      141
 152.5200      144
 152.5600      147
 152.6000      154
 152.6400      154
 152.6800      181
 152.7200      187
 152.7600      170
 152.8000      182
 152.8400      166
 152.8800      189
 152.9200      210
 152.9600      215
 153.0000      193
 153.0400      203
 153.0800      239
 153.1200      248
 153.1600      229
 153.2000      248
 153.2400      258
 153.2800      226
 153.3200      267
 153.3600      266
 153.4000      266
 153.4400      282
 153.4800      275
 153.5200      307
 153.5600      289
 153.6000      345
 153.6400      304
 153.6800      328
 153.7200      319
 153.7600      375
 153.8000      376
 153.8400      349
 153.8800      383
 153.9200      442
 153.9600      405
 154.0000      387
 154.0400      406
 154.0800      410
 154.1200      417
 154.1600      467
 154.2000      425
 154.2400      434
 154.2800      432
 154.3200      473
 154.3600      468
 154.4000      466
 154.4400      490
 154.4800      472
 154.5200      471
 154.5600      474
 154.6000      487
 154.6400      493
 154.6800      497
 154.7200      517
 154.7600      521
 154.8000      526
 154.8400      471
 154.8800      468
 154.9200      456
 154.9600      520
 155.0000      460

File: SDD_sample_name_01234_Psi-0_20180602-105210.txt
 145.0000       46
 145.0000       46
 145.0000       46
 145.0400       40
 145.0400       40
 145.0400       40
 145.0800       33
 145.0800       33
 145.0800       33
 145.1200       34
 145.1200       34
 145.1200       34
 145.1600       43
 145.1600       43
 145.1600       43
 145.2000       38
 145.2000       38
 145.2000       38
 145.2400       40
 145.2400       40
 145.2400       40
 145.2800       29
 145.2800       29
 145.2800       29
 145.3200       35
 145.3200       35
 145.3200       35
 145.3600       37
 145.3600       37
 145.3600       37
 145.4000       35
 145.4000       35
 145.4000       35
 145.4400       38
 145.4400       38
 145.4400       38
 145.4800       39
 145.4800       39
 145.4800       39
 145.5200       52
 145.5200       52
 145.5200       52
 145.5600       35
 145.5600       35
 145.5600       35
 145.6000       39
 145.6000       39
 145.6000       39
 145.6400       35
 145.6400       35
 145.6400       35
 145.6800       34
 145.6800       34
 145.6800       34
 145.7200       27
 145.7200       27
 145.7200       27
 145.7600       39
 145.7600       39
 145.7600       39
 145.8000       48
 145.8000       48
 145.8000       48
 145.8400       46
 145.8400       46
 145.8400       46
 145.8800       37
 145.8800       37
 145.8800       37
 145.9200       26
 145.9200       26
 145.9200       26
 145.9600       47
 145.9600       47
 145.9600       47
 146.0000       44
 146.0000       44
 146.0000       44
 146.0400       39
 146.0400       39
 146.0400       39
 146.0800       36
 146.0800       36
 146.0800       36
 146.1200       32
 146.1200       32
 146.1200       32
 146.1600       36
 146.1600       36
 146.1600       36
 146.2000       43
 146.2000       43
 146.2000       43
 146.2400       34
 146.2400       34
 146.2400       34
 146.2800       35
 146.2800       35
 146.2800       35
 146.3200       41
 146.3200       41
 146.3200       41
 146.3600       50
 146.3600       50
 146.3600       50
 146.4000       23
 146.4000       23
 146.4000       23
 146.4400       46
 146.4400       46
 146.4400       46
 146.4800       42
 146.4800       42
 146.4800       42
 146.5200       48
 146.5200       48
 146.5200       48
 146.5600       44
 146.5600       44
 146.5600       44
 146.6000       47
 146.6000       47
 146.6000       47
 146.6400       33
 146.6400       33
 146.6400       33
 146.6800       46
 146.6800       46
 146.6800       46
 146.7200       36
 146.7200       36
 146.7200       36
 146.7600       46
 146.7600       46
 146.7600       46
 146.8000       38
 146.8000       38
 146.8000       38
 146.8400       36
 146.8400       36
 146.8400       36
 146.8800       38
 146.8800       38
 146.8800       38
 146.9200       41
 146.9200       41
 146.9200       41
 146.9600       43
 146.9600       43
 146.9600       43
 147.0000       36
 147.0000       36
 147.0000       36
 147.0400       36
 147.0400       36
 147.0400       36
 147.0800       51
 147.0800       51
 147.0800       51
 147.1200       35
 147.1200       35
 147.1200       35
 147.1600       44
 147.1600       44
 147.1600       44
 147.2000       40
 147.2000       40
 147.2000       40
 147.2400       47
 147.2400       47
 147.2400       47
 147.2800       36
 147.2800       36
 147.2800       36
 147.3200       46
 147.3200       46
 147.3200       46
 147.3600       34
 147.3600       34
 147.3600       34
 147.4000       45
 147.4000       45
 147.4000       45
 147.4400       53
 147.4400       53
 147.4400       53
 147.4800       49
 147.4800       49
 147.4800       49
 147.5200       49
 147.5200       49
 147.5200       49
 147.5600       47
 147.5600       47
 147.5600       47
 147.6000       45
 147.6000       45
 147.6000       45
 147.6400       54
 147.6400       54
 147.6400       54
 147.6800       37
 147.6800       37
 147.6800       37
 147.7200       48
 147.7200       48
 147.7200       48
 147.7600       37
 147.7600       37
 147.7600       37
 147.8000       41
 147.8000       41
 147.8000       41
 147.8400       46
 147.8400       46
 147.8400       46
 147.8800       44
 147.8800       44
 147.8800       44
 147.9200       53
 147.9200       53
 147.9200       53
 147.9600       33
 148.0000       44
 148.0000       44
 148.0000       44
 148.0400       49
 148.0400       49
 148.0400       49
 148.0800       49
 148.0800       49
 148.0800       49
 148.1200       36
 148.1200       36
 148.1200       36
 148.1600       39
 148.1600       39
 148.1600       39
 148.2000       33
 148.2000       33
 148.2000       33
 148.2400       39
 148.2400       39
 148.2400       39
 148.2800       42
 148.2800       42
 148.2800       42
 148.3200       43
 148.3200       43
 148.3200       43
 148.3600       41

File: SDD_sample_name_01234_Psi-0_20180602-105613.txt
 145.0000       45
 145.0400       38
 145.0800       37
 145.1200       44
 145.1600       32
 145.2000       34
 145.2400       35
 145.2800       29
 145.3200       29
 145.3600       44
 145.4000       47
 145.4400       37
 145.4800       44
 145.5200       43
 145.5600       38
 145.6000       46
 145.6400       41
 145.6800       24
 145.7200       44
 145.7600       39
 145.8000       33
 145.8400       47
 145.8800       47
 145.9200       49
 145.9600       39
 146.0000       36
 146.0400       37
 146.0800       36
 146.1200       35
 146.1600       40
 146.2000       36
 146.2400       38
 146.2800       29
 146.3200       36
 146.3600       34
 146.4000       44
 146.4400       35
 146.4800       39
 146.5200       48
 146.5600       57
 146.6000       41
 146.6400       36
 146.6800       43
 146.7200       45
 146.7600       31
 146.8000       33
 146.8400       40
 146.8800       30
 146.9200       43
 146.9600       36
 147.0000       35
 147.0400       36
 147.0800       43
 147.1200       45
 147.1600       24
 147.2000       38
 147.2400       33
 147.2800       53
 147.3200       46
 147.3600       37
 147.4000       36
 147.4400       42
 147.4800       34
 147.5200       27
 147.5600       24
 147.6000       46
 147.6400       41
 147.6800       42
 147.7200       39
 147.7600       45
 147.8000       37
 147.8400       38
 147.8800       33
 147.9200       41
 147.9600       44
 148.0000       29
 148.0400       35
 148.0800       50
 148.1200       50
 148.1600       48
 148.2000       54
 148.2400       48
 148.2800       45
 148.3200       42
 148.3600       49
 148.4000       45
 148.4400       36
 148.4800       43
 148.5200       37
 148.5600       42
 148.6000       52
 148.6400       35
 148.6800       55
 148.7200       57
 148.7600       50
 148.8000       40
 148.8400       40
 148.8800       34
 148.9200       52
 148.9600       49
 149.0000       54
 149.0400       40
 149.0800       55
 149.1200       48
 149.1600       54
 149.2000       47
 149.2400       35
 149.2800       53
 149.3200       56
 149.3600       44
 149.4000       44
 149.4400       47
 149.4800       48
 149.5200       55
 149.5600       64
 149.6000       48
 149.6400       68
 149.6800       56
 149.7200       68
 149.7600       42
 149.8000       59
 149.8400       50
 149.8800       45
 149.9200       54
 149.9600       53
 150.0000       53
 150.0400       52
 150.0800       59
 150.1200       59
 150.1600       54
 150.2000       49
 150.2400       58
 150.2800       50
 150.3200       46
 150.3600       52
 150.4000       58
 150.4400       69
 150.4800       53
 150.5200       54
 150.5600       68
 150.6000       67
 150.6400       71
 150.6800       65
 150.7200       66
 150.7600       61
 150.8000       57
 150.8400       65
 150.8800       70
 150.9200       87
 150.9600       65
 151.0000       68
 151.0400       80
 151.0800       72
 151.1200       68
 151.1600       75
 151.2000       79
 151.2400       61
 151.2800       70
 151.3200       79
 151.3600       91
 151.4000       90
 151.4400       85
 151.4800       74
 151.5200       97
 151.5600       79
 151.6000       87
 151.6400      101
 151.6800       95
 151.7200       93
 151.7600      103
 151.8000       97
 151.8400      105
 151.8800      101
 151.9200       92
 151.9600       98
 152.0000      112
 152.0400      107
 152.0800       96
 152.1200      121
 152.1600      116
 152.2000      118
 152.2400      141
 152.2800      126
 152.3200      126
 152.3600      136
 152.4000      146
 152.4400      131
 152.4800      134
 152.5200      139
 152.5600      161
 152.6000      173
 152.6400      144
 152.6800      156
 152.7200      171
 152.7600      172
 152.8000      174
 152.8400      187
 152.8800      196
 152.9200      190
 152.9600      194
 153.0000      196
 153.0400      228
 153.0800      209
 153.1200      208
 153.1600      241
 153.2000      237
 153.2400      250
 153.2800      250
 153.3200      260
 153.3600      268
 153.4000      274
 153.4400      278
 153.4800      255
 153.5200      296
 153.5600      308
 153.6000      300
 153.6400      324
 153.6800      337
 153.7200      340
 153.7600      359
 153.8000      370
 153.8400      345
 153.8800      379
 153.9200      390
 153.9600      432
 154.0000      386
 154.0400      401
 154.0800      420
 154.1200      436
 154.1600      445
 154.2000      439
 154.2400      447
 154.2800      449
 154.3200      455
 154.3600      462
 154.4000      436
 154.4400      479
 154.4800      523
 154.5200      478
 154.5600      472
 154.6000      500
 154.6400      478
 154.6800      453
 154.7200      504
 154.7600      458
 154.8000      495
 154.8400      481
 154.8800      523
 154.9200      502
 154.9600      458
 155.0000      465