Folder: xrd/XRD_Tool/XRD_Tool/bin/Debug (part 3)

File: LDA_sample_name_56789_Psi-0_20180603-114137.txt
137.2000     233
137.3200     229
137.4400     255
137.5600     251
137.6800     254
137.8000     256
137.9200     252
138.0400     232
138.1600     221
138.2800     250
138.4000     242
138.5200     243
138.6400     261
138.7600     259
138.8800     253
139.0000     292
139.1200     277
139.2400     249
139.3600     275
139.4800     305
139.6000     225
139.7200     266
139.8400     268
139.9600     255
140.0800     284
140.2000     275
140.3200     249
140.4400     277
140.5600     269
140.6800     236
140.8000     264
140.9200     255
141.0400     257
141.1600     261
141.2800     266
141.4000     277
141.5200     264
141.6400     249
141.7600     245
141.8800     293
142.0000     278
142.1200     247
142.2400     265
142.3600     265
142.4800     258
142.6000     252
142.7200     263
142.8400     287
142.9600     260
143.0800     260
143.2000     233
143.3200     255
143.4400     279
143.5600     261
143.6800     255
143.8000     267
143.9200     255
144.0400     251
144.1600     278
144.2800     268
144.4000     271
144.5200     282
144.6400     271
144.7600     292
144.8800     271
145.0000     298
145.1200     231
145.2400     257
145.3600     272
145.4800     258
145.6000     277
145.7200     248
145.8400     290
145.9600     275
146.0800     280
146.2000     287
146.3200     249
146.4400     262
146.5600     255
146.6800     253
146.8000     243
146.9200     287
147.0400     268
147.1600     307
147.2800     273
147.4000     250
147.5200     290
147.6400     291
147.7600     303
147.8800     298
148.0000     316
148.1200     275
148.2400     278
148.3600     271
148.4800     288
148.6000     282
148.7200     286
148.8400     263
148.9600     263
149.0800     285
149.2000     288
149.3200     289
149.4400     313
149.5600     304
149.6800     313
149.8000     314
149.9200     311
150.0400     319
150.1600     336
150.2800     305
150.4000     317
150.5200     329
150.6400     326
150.7600     305
150.8800     296
151.0000     325
151.1200     333
151.2400     326
151.3600     306
151.4800     332
151.6000     343
151.7200     354
151.8400     356
151.9600     386
152.0800     379
152.2000     401
152.3200     394
152.4400     397
152.5600     477
152.6800     463
152.8000     464
152.9200     498
153.0400     492
153.1600     545
153.2800     554
153.4000     601
153.5200     641
153.6400     606
153.7600     633
153.8800     729
154.0000     681
154.1200     741
154.2400     761
154.3600     722
154.4800     741
154.6000     768
154.7200     748
154.8400     772
154.9600     798
155.0800     772
155.2000     747
155.3200     703
155.4400     672
155.5600     611
155.6800     604
155.8000     630
155.9200     602
156.0400     513
156.1600     549
156.2800     487
156.4000     476
156.5200     506
156.6400     483
156.7600     455
156.8800     439
157.0000     426
157.1200     426
157.2400     385
157.3600     398
157.4800     363
157.6000     398
157.7200     414
157.8400     407
157.9600     378
158.0800     348
158.2000     318
158.3200     350
158.4400     318
158.5600     338
158.6800     333
158.8000     321
158.9200     310
159.0400     297
159.1600     310
159.2800     321
159.4000     331
159.5200     285
159.6400     333
159.7600     314
159.8800     313
160.0000     282
160.1200     324
160.2400     247
160.3600     289
160.4800     259
160.6000     303
160.7200     283
160.8400     280
160.9600     296
161.0800     280
161.2000     286
161.3200     272
161.4400     267
161.5600     296
161.6800     258
161.8000     287
161.9200     265
162.0400     267
162.1600     294
162.2800     267
162.4000     271
162.5200     292
162.6400     276
162.7600     265

File: LDA_sample_name_56789_Psi-0_20180603-114339.txt
137.2000     254
137.3200     227
137.4400     291
137.5600     250
137.6800     219
137.8000     274
137.9200     247
138.0400     240
138.1600     266
138.2800     292
138.4000     247
138.5200     288
138.6400     239
138.7600     262
138.8800     238
139.0000     246
139.1200     295
139.2400     269
139.3600     226
139.4800     248
139.6000     223
139.7200     264
139.8400     260
139.9600     254
140.0800     254
140.2000     261
140.3200     239
140.4400     288
140.5600     249
140.6800     262
140.8000     271
140.9200     273
141.0400     271
141.1600     271
141.2800     257
141.4000     267
141.5200     266
141.6400     258
141.7600     264
141.8800     245
142.0000     277
142.1200     236
142.2400     254
142.3600     274
142.4800     262
142.6000     304
142.7200     272
142.8400     263
142.9600     259
143.0800     279
143.2000     257
143.3200     288
143.4400     248
143.5600     243
143.6800     258
143.8000     304
143.9200     272
144.0400     282
144.1600     256
144.2800     300
144.4000     268
144.5200     271
144.6400     255
144.7600     270
144.8800     271
145.0000     279
145.1200     239
145.2400     305
145.3600     304
145.4800     283
145.6000     264
145.7200     298
145.8400     277
145.9600     277
146.0800     254
146.2000     272
146.3200     265
146.4400     269
146.5600     225
146.6800     285
146.8000     303
146.9200     265
147.0400     299
147.1600     290
147.2800     252
147.4000     275
147.5200     272
147.6400     280
147.7600     262
147.8800     282
148.0000     288
148.1200     254
148.2400     311
148.3600     291
148.4800     294
148.6000     273
148.7200     256
148.8400     282
148.9600     271
149.0800     299
149.2000     285
149.3200     284
149.4400     320
149.5600     299
149.6800     283
149.8000     276
149.9200     351
150.0400     321
150.1600     295
150.2800     292
150.4000     292
150.5200     318
150.6400     290
150.7600     336
150.8800     330
151.0000     324
151.1200     317
151.2400     319
151.3600     328
151.4800     331
151.6000     343
151.7200     355
151.8400     414
151.9600     365
152.0800     384
152.2000     381
152.3200     395
152.4400     415
152.5600     417
152.6800     507
152.8000     457
152.9200     493
153.0400     514
153.1600     561
153.2800     624
153.4000     652
153.5200     579
153.6400     633
153.7600     696
153.8800     724
154.0000     675
154.1200     728
154.2400     740
154.3600     704
154.4800     712
154.6000     769
154.7200     703
154.8400     770
154.9600     810
155.0800     760
155.2000     701
155.3200     709
155.4400     610
155.5600     654
155.6800     561
155.8000     604
155.9200     539
156.0400     550
156.1600     539
156.2800     563
156.4000     447
156.5200     480
156.6400     457
156.7600     447
156.8800     469
157.0000     432
157.1200     412
157.2400     344
157.3600     386
157.4800     373
157.6000     361
157.7200     378
157.8400     373
157.9600     366
158.0800     350
158.2000     318
158.3200     314
158.4400     352
158.5600     288
158.6800     325
158.8000     353
158.9200     300
159.0400     301
159.1600     310
159.2800     333
159.4000     338
159.5200     300
159.6400     312
159.7600     296
159.8800     300
160.0000     305
160.1200     296
160.2400     308
160.3600     270
160.4800     302
160.6000     276
160.7200     302
160.8400     324
160.9600     311
161.0800     276
161.2000     269
161.3200     267
161.4400     301
161.5600     279
161.6800     248
161.8000     272
161.9200     236
162.0400     293
162.1600     245
162.2800     291
162.4000     257
162.5200     232
162.6400     269
162.7600     238

File: LDA_sample_name_56789_Psi-0_20180603-115211.txt
137.2000     206
137.3200     232
137.4400     270
137.5600     252
137.6800     261
137.8000     244
137.9200     245
138.0400     257
138.1600     261
138.2800     250
138.4000     235
138.5200     259
138.6400     241
138.7600     273
138.8800     265
139.0000     291
139.1200     265
139.2400     236
139.3600     238
139.4800     280
139.6000     278
139.7200     238
139.8400     246
139.9600     268
140.0800     261
140.2000     247
140.3200     260
140.4400     239
140.5600     231
140.6800     252
140.8000     272
140.9200     272
141.0400     278
141.1600     257
141.2800     233
141.4000     236
141.5200     253
141.6400     263
141.7600     271
141.8800     296
142.0000     265
142.1200     282
142.2400     276
142.3600     260
142.4800     264
142.6000     273
142.7200     284
142.8400     281
142.9600     262
143.0800     275
143.2000     251
143.3200     270
143.4400     265
143.5600     289
143.6800     289
143.8000     252
143.9200     276
144.0400     269
144.1600     309
144.2800     273
144.4000     285
144.5200     270
144.6400     286
144.7600     302
144.8800     286
145.0000     276
145.1200     247
145.2400     273
145.3600     252
145.4800     242
145.6000     258
145.7200     259
145.8400     265
145.9600     273
146.0800     282
146.2000     290
146.3200     256
146.4400     284
146.5600     272
146.6800     262
146.8000     279
146.9200     247
147.0400     267
147.1600     298
147.2800     297
147.4000     273
147.5200     265
147.6400     279
147.7600     315
147.8800     293
148.0000     289
148.1200     311
148.2400     289
148.3600     263
148.4800     293
148.6000     292
148.7200     285
148.8400     286
148.9600     287
149.0800     290
149.2000     302
149.3200     307
149.4400     264
149.5600     304
149.6800     306
149.8000     314
149.9200     285
150.0400     303
150.1600     316
150.2800     315
150.4000     325
150.5200     289
150.6400     283
150.7600     322
150.8800     323
151.0000     320
151.1200     343
151.2400     322
151.3600     343
151.4800     316
151.6000     333
151.7200     327
151.8400     343
151.9600     368
152.0800     410
152.2000     357
152.3200     386
152.4400     426
152.5600     437
152.6800     507
152.8000     465
152.9200     547
153.0400     549
153.1600     565
153.2800     590
153.4000     596
153.5200     658
153.6400     700
153.7600     669
153.8800     753
154.0000     723
154.1200     759
154.2400     742
154.3600     732
154.4800     746
154.6000     770
154.7200     708
154.8400     705
154.9600     765
155.0800     747
155.2000     715
155.3200     689
155.4400     652
155.5600     641
155.6800     598
155.8000     622
155.9200     553
156.0400     543
156.1600     533
156.2800     536
156.4000     484
156.5200     474
156.6400     446
156.7600     473
156.8800     418
157.0000     419
157.1200     409
157.2400     354
157.3600     386
157.4800     404
157.6000     367
157.7200     403
157.8400     372
157.9600     391
158.0800     343
158.2000     348
158.3200     336
158.4400     335
158.5600     367
158.6800     292
158.8000     347
158.9200     326
159.0400     334
159.1600     298
159.2800     300
159.4000     322
159.5200     300
159.6400     295
159.7600     300
159.8800     324
160.0000     318
160.1200     303
160.2400     278
160.3600     311
160.4800     304
160.6000     284
160.7200     305
160.8400     287
160.9600     298
161.0800     264
161.2000     276
161.3200     298
161.4400     275
161.5600     278
161.6800     262
161.8000     277
161.9200     294
162.0400     257
162.1600     272
162.2800     239
162.4000     273
162.5200     254
162.6400     253
162.7600     245

File: LDA_sample_name_56789_Psi-0_20180603-115751.txt
137.2000     223
137.3200     257
137.4400     250
137.5600     288
137.6800     244
137.8000     267
137.9200     263
138.0400     254
138.1600     270
138.2800     286
138.4000     291
138.5200     253
138.6400     253
138.7600     279
138.8800     218
139.0000     237
139.1200     246
139.2400     253
139.3600     239
139.4800     251
139.6000     254
139.7200     244
139.8400     245
139.9600     282
140.0800     270
140.2000     263
140.3200     268
140.4400     258
140.5600     260
140.6800     266
140.8000     250
140.9200     245
141.0400     242
141.1600     253
141.2800     225
141.4000     234
141.5200     241
141.6400     234
141.7600     262
141.8800     243
142.0000     262
142.1200     272
142.2400     268
142.3600     265
142.4800     281
142.6000     280
142.7200     241
142.8400     239
142.9600     277
143.0800     286
143.2000     260
143.3200     252
143.4400     276
143.5600     243
143.6800     250
143.8000     255
143.9200     290
144.0400     249
144.1600     269
144.2800     303
144.4000     274
144.5200     252
144.6400     264
144.7600     274
144.8800     259
145.0000     235
145.1200     239
145.2400     277
145.3600     298
145.4800     256
145.6000     281
145.7200     245
145.8400     265
145.9600     264
146.0800     267
146.2000     258
146.3200     269
146.4400     272
146.5600     272
146.6800     246
146.8000     268
146.9200     296
147.0400     259
147.1600     258
147.2800     294
147.4000     281
147.5200     288
147.6400     289
147.7600     280
147.8800     260
148.0000     317
148.1200     276
148.2400     246
148.3600     313
148.4800     290
148.6000     253
148.7200     306
148.8400     266
148.9600     312
149.0800     305
149.2000     327
149.3200     303
149.4400     275
149.5600     303
149.6800     289
149.8000     300
149.9200     264
150.0400     319
150.1600     293
150.2800     312
150.4000     314
150.5200     307
150.6400     309
150.7600     312
150.8800     311
151.0000     313
151.1200     357
151.2400     329
151.3600     365
151.4800     331
151.6000     365
151.7200     333
151.8400     350
151.9600     365
152.0800     367
152.2000     404
152.3200     377
152.4400     417
152.5600     433
152.6800     486
152.8000     488
152.9200     491
153.0400     519
153.1600     535
153.2800     613
153.4000     651
153.5200     611
153.6400     624
153.7600     733
153.8800     662
154.0000     675
154.1200     708
154.2400     779
154.3600     786
154.4800     741
154.6000     712
154.7200     775
154.8400     791
154.9600     808
155.0800     747
155.2000     657
155.3200     657
155.4400     637
155.5600     653
155.6800     591
155.8000     647
155.9200     552
156.0400     574
156.1600     538
156.2800     535
156.4000     472
156.5200     491
156.6400     431
156.7600     448
156.8800     431
157.0000     435
157.1200     396
157.2400     374
157.3600     365
157.4800     411
157.6000     368
157.7200     340
157.8400     379
157.9600     347
158.0800     336
158.2000     331
158.3200     323
158.4400     350
158.5600     304
158.6800     350
158.8000     303
158.9200     296
159.0400     339
159.1600     283
159.2800     299
159.4000     304
159.5200     292
159.6400     301
159.7600     289
159.8800     296
160.0000     315
160.1200     287
160.2400     290
160.3600     268
160.4800     265
160.6000     326
160.7200     294
160.8400     256
160.9600     292
161.0800     283
161.2000     282
161.3200     304
161.4400     271
161.5600     306
161.6800     267
161.8000     284
161.9200     254
162.0400     237
162.1600     294
162.2800     262
162.4000     272
162.5200     282
162.6400     283
162.7600     259

File: LDA_sample_name_56789_Psi-0_20180603-120444.txt
137.2000     234
137.3200     236
137.4400     225
137.5600     256
137.6800     270
137.8000     242
137.9200     267
138.0400     275
138.1600     244
138.2800     251
138.4000     252
138.5200     261
138.6400     251
138.7600     277
138.8800     270
139.0000     266
139.1200     236
139.2400     282
139.3600     263
139.4800     264
139.6000     281
139.7200     278
139.8400     245
139.9600     264
140.0800     253
140.2000     240
140.3200     255
140.4400     237
140.5600     263
140.6800     277
140.8000     280
140.9200     258
141.0400     270
141.1600     242
141.2800     250
141.4000     274
141.5200     253
141.6400     246
141.7600     254
141.8800     283
142.0000     286
142.1200     256
142.2400     268
142.3600     233
142.4800     237
142.6000     290
142.7200     249
142.8400     283
142.9600     273
143.0800     298
143.2000     300
143.3200     268
143.4400     263
143.5600     254
143.6800     279
143.8000     275
143.9200     252
144.0400     290
144.1600     265
144.2800     246
144.4000     266
144.5200     251
144.6400     252
144.7600     262
144.8800     292
145.0000     301
145.1200     269
145.2400     282
145.3600     260
145.4800     273
145.6000     227
145.7200     293
145.8400     291
145.9600     264
146.0800     285
146.2000     283
146.3200     267
146.4400     263
146.5600     272
146.6800     271
146.8000     257
146.9200     256
147.0400     268
147.1600     272
147.2800     268
147.4000     283
147.5200     268
147.6400     261
147.7600     306
147.8800     305
148.0000     302
148.1200     294
148.2400     323
148.3600     297
148.4800     302
148.6000     310
148.7200     282
148.8400     285
148.9600     278
149.0800     295
149.2000     300
149.3200     293
149.4400     274
149.5600     286
149.6800     278
149.8000     296
149.9200     297
150.0400     324
150.1600     310
150.2800     297
150.4000     279
150.5200     316
150.6400     346
150.7600     294
150.8800     348
151.0000     318
151.1200     317
151.2400     318
151.3600     342
151.4800     392
151.6000     355
151.7200     363
151.8400     378
151.9600     378
152.0800     383
152.2000     394
152.3200     410
152.4400     405
152.5600     437
152.6800     535
152.8000     462
152.9200     519
153.0400     500
153.1600     531
153.2800     587
153.4000     599
153.5200     598
153.6400     728
153.7600     669
153.8800     709
154.0000     703
154.1200     807
154.2400     773
154.3600     786
154.4800     755
154.6000     767
154.7200     750
154.8400     707
154.9600     802
155.0800     798
155.2000     731
155.3200     679
155.4400     592
155.5600     676
155.6800     646
155.8000     620
155.9200     572
156.0400     570
156.1600     550
156.2800     500
156.4000     507
156.5200     486
156.6400     472
156.7600     410
156.8800     459
157.0000     445
157.1200     417
157.2400     421
157.3600     401
157.4800     381
157.6000     364
157.7200     377
157.8400     385
157.9600     372
158.0800     349
158.2000     315
158.3200     346
158.4400     337
158.5600     359
158.6800     362
158.8000     325
158.9200     332
159.0400     337
159.1600     321
159.2800     305
159.4000     335
159.5200     289
159.6400     289
159.7600     286
159.8800     315
160.0000     284
160.1200     318
160.2400     289
160.3600     277
160.4800     253
160.6000     279
160.7200     279
160.8400     280
160.9600     282
161.0800     299
161.2000     281
161.3200     261
161.4400     245
161.5600     303
161.6800     237
161.8000     291
161.9200     299
162.0400     255
162.1600     283
162.2800     263
162.4000     255
162.5200     244
162.6400     268
162.7600     231

File: LDA_sample_name_56789_Psi-0_20180603-121929.txt
128.0000     276
128.0800     258
128.1600     241
128.2400     241
128.3200     246
128.4000     264
128.4800     265
128.5600     226
128.6400     287
128.7200     272
128.8000     268
128.8800     241
128.9600     261
129.0400     260
129.1200     272
129.2000     258
129.2800     237
129.3600     244
129.4400     263
129.5200     239
129.6000     244
129.6800     263
129.7600     262
129.8400     244
129.9200     255
130.0000     258
130.0800     229
130.1600     281
130.2400     256
130.3200     267
130.4000     262
130.4800     251
130.5600     266
130.6400     263
130.7200     264
130.8000     266
130.8800     269
130.9600     264
131.0400     274
131.1200     227
131.2000     260
131.2800     263
131.3600     238
131.4400     222
131.5200     257
131.6000     268
131.6800     237
131.7600     266
131.8400     280
131.9200     268
132.0000     253
132.0800     272
132.1600     250
132.2400     265
132.3200     281
132.4000     273
132.4800     280
132.5600     259
132.6400     241
132.7200     251
132.8000     280
132.8800     257
132.9600     271
133.0400     279
133.1200     292
133.2000     254
133.2800     269
133.3600     245
133.4400     286
133.5200     284
133.6000     264
133.6800     272
133.7600     266
133.8400     276
133.9200     272
134.0000     274
134.0800     281
134.1600     289
134.2400     303
134.3200     268
134.4000     285
134.4800     285
134.5600     262
134.6400     284
134.7200     268
134.8000     288
134.8800     304
134.9600     247
135.0400     266
135.1200     258
135.2000     262
135.2800     282
135.3600     279
135.4400     262
135.5200     262
135.6000     274
135.6800     248
135.7600     278
135.8400     260
135.9200     272
136.0000     244
136.0800     260
136.1600     243
136.2400     261
136.3200     262
136.4000     283
136.4800     282
136.5600     249
136.6400     258
136.7200     290
136.8000     261
136.8800     257
136.9600     256
137.0400     260
137.1200     281
137.2000     266
137.2800     262
137.3600     231
137.4400     272
137.5200     261
137.6000     279
137.6800     248
137.7600     286
137.8400     275
137.9200     267
138.0000     281
138.0800     242
138.1600     279
138.2400     290
138.3200     292
138.4000     242
138.4800     293
138.5600     273
138.6400     281
138.7200     274
138.8000     276
138.8800     275
138.9600     265
139.0400     296
139.1200     277
139.2000     282
139.2800     319
139.3600     280
139.4400     284
139.5200     269
139.6000     282
139.6800     304
139.7600     256
139.8400     267
139.9200     282
140.0000     260
140.0800     270
140.1600     271
140.2400     297
140.3200     275
140.4000     243
140.4800     254
140.5600     271
140.6400     261
140.7200     274
140.8000     264
140.8800     245
140.9600     263
141.0400     285
141.1200     257
141.2000     262
141.2800     282
141.3600     276
141.4400     259
141.5200     272
141.6000     256
141.6800     273
141.7600     264
141.8400     266
141.9200     244
142.0000     260
142.0800     264
142.1600     276
142.2400     255
142.3200     246
142.4000     253
142.4800     273
142.5600     264
142.6400     280
142.7200     261
142.8000     302
142.8800     309
142.9600     252
143.0400     286
143.1200     275
143.2000     290
143.2800     271
143.3600     268
143.4400     266
143.5200     273
143.6000     273
143.6800     267
143.7600     283
143.8400     246
143.9200     280
144.0000     287
144.0800     248
144.1600     254
144.2400     273
144.3200     246
144.4000     268
144.4800     331
144.5600     255
144.6400     283
144.7200     259
144.8000     296
144.8800     267
144.9600     276
145.0400     260
145.1200     281
145.2000     281
145.2800     280
145.3600     271
145.4400     268
145.5200     247
145.6000     251
145.6800     268
145.7600     235
145.8400     251
145.9200     258
146.0000     275
146.0800     285
146.1600     268
146.2400     267
146.3200     272
146.4000     235
146.4800     297
146.5600     276
146.6400     276
146.7200     279
146.8000     282
146.8800     293
146.9600     266
147.0400     235
147.1200     269
147.2000     238
147.2800     272
147.3600     304
147.4400     252
147.5200     260
147.6000     283
147.6800     276
147.7600     308
147.8400     296
147.9200     283
148.0000     280
148.0800     271
148.1600     282
148.2400     283
148.3200     236
148.4000     272
148.4800     283
148.5600     277
148.6400     270
148.7200     278
148.8000     274
148.8800     267
148.9600     262
149.0400     287
149.1200     279
149.2000     262
149.2800     279
149.3600     274
149.4400     283
149.5200     274
149.6000     264
149.6800     278
149.7600     275
149.8400     295
149.9200     282
150.0000     283
150.0800     284
150.1600     272
150.2400     283
150.3200     270
150.4000     280
150.4800     300
150.5600     276
150.6400     273
150.7200     319
150.8000     280
150.8800     272
150.9600     285
151.0400     292
151.1200     304
151.2000     295
151.2800     269
151.3600     297
151.4400     300
151.5200     263
151.6000     288
151.6800     293
151.7600     275
151.8400     326
151.9200     313
151.9600     319