Folder: xrd/XRD_Tool/XRD_Tool/bin/Debug (part 12)

File: LDA_sample_name_56789_Psi-24_20180623-125435.txt
138.0000     216
138.0800     283
138.1600     254
138.2400     145
138.3200     208
138.4000     208
138.4800     256
138.5600     285
138.6400     178
138.7200     229
138.8000     233
138.8800     286
138.9600     233
139.0400     140
139.1200     316
139.2000     320
139.2800     236
139.3600     227
139.4400     279
139.5200     213
139.6000     127
139.6800     201
139.7600     235
139.8400     158
139.9200     286
140.0000     204
140.0800     191
140.1600     229
140.2400     240
140.3200     199
140.4000     340
140.4800     259
140.5600     219
140.6400     313
140.7200     192
140.8000     167
140.8800     213
140.9600     253
141.0400     289
141.1200     208
141.2000     158
141.2800     270
141.3600     184
141.4400     241
141.5200     316
141.6000     276
141.6800     222
141.7600     244
141.8400     305
141.9200     200
142.0000     262
142.0800     238
142.1600     206
142.2400     148
142.3200     247
142.4000     264
142.4800     325
142.5600     264
142.6400     277
142.7200     298
142.8000     278
142.8800     267
142.9600     398
143.0400     263
143.1200     268
143.2000     348
143.2800     305
143.3600     267
143.4400     272
143.5200     272
143.6000     269
143.6800     276
143.7600     321
143.8400     311
143.9200     273
144.0000     361
144.0800     379
144.1600     214
144.2400     238
144.3200     391
144.4000     293
144.4800     319
144.5600     286
144.6400     348
144.7200     295
144.8000     251
144.8800     354
144.9600     324
145.0400     371
145.1200     221
145.2000     363
145.2800     279
145.3600     386
145.4400     253
145.5200     358
145.6000     380
145.6800     320
145.7600     394
145.8400     340
145.9200     244
146.0000     415
146.0800     275
146.1600     267
146.2400     384
146.3200     251
146.4000     410
146.4800     335
146.5600     273
146.6400     361
146.7200     303
146.8000     402
146.8800     271
146.9600     438
147.0400     349
147.1200     394
147.2000     498
147.2800     379
147.3600     368
147.4400     387
147.5200     404
147.6000     459
147.6800     358
147.7600     444
147.8400     396
147.9200     485
148.0000     432
148.0800     351
148.1600     392
148.2400     365
148.3200     443
148.4000     455
148.4800     360
148.5600     393
148.6400     378
148.7200     429
148.8000     442
148.8800     388
148.9600     336
149.0400     445
149.1200     447
149.2000     440
149.2800     512
149.3600     438
149.4400     540
149.5200     425
149.6000     501
149.6800     392
149.7600     503
149.8400     426
149.9200     480
150.0000     494
150.0800     496
150.1600     450
150.2400     477
150.3200     551
150.4000     544
150.4800     638
150.5600     535
150.6400     570
150.7200     466
150.8000     559
150.8800     484
150.9600     613
151.0400     652
151.1200     627
151.2000     528
151.2800     564
151.3600     619
151.4400     699
151.5200     631
151.6000     735
151.6800     742
151.7600     695
151.8400     735
151.9200     752
152.0000     770
152.0800     849
152.1600     858
152.2400     844
152.3200     986
152.4000     884
152.4800    1008
152.5600    1080
152.6400    1132
152.7200    1328
152.8000    1403
152.8800    1356
152.9600    1405
153.0400    1393
153.1200    1510
153.2000    1529
153.2800    1587
153.3600    1766
153.4400    1779
153.5200    1916
153.6000    1929
153.6800    2100
153.7600    2188
153.8400    2162
153.9200    2102
154.0000    2157
154.0800    2153
154.1600    2436
154.2400    2108
154.3200    2395
154.4000    2302
154.4800    2292
154.5600    2581
154.6400    2184
154.7200    2151
154.8000    2110
154.8800    2211
154.9600    2238
155.0400    2324
155.1200    2063
155.2000    2012
155.2800    2048
155.3600    2005
155.4400    1672
155.5200    1737
155.6000    1544
155.6800    1535
155.7600    1472
155.8400    1651
155.9200    1370
156.0000    1231
156.0800    1304
156.1600    1329
156.2400    1137
156.3200    1127
156.4000    1156
156.4800    1193
156.5600    1025
156.6400     974
156.7200     918
156.8000     977
156.8800     963
156.9600     794
157.0400     781
157.1200     784
157.2000     739
157.2800     816
157.3600     657
157.4400     709
157.5200     658
157.6000     628
157.6800     743
157.7600     632
157.8400     635
157.9200     670
158.0000     692
158.0800     570
158.1600     645
158.2400     606
158.3200     564
158.4000     636
158.4800     630
158.5600     686
158.6400     586
158.7200     689
158.8000     344
158.8800     602
158.9600     554
159.0400     577
159.1200     520
159.2000     595
159.2800     672
159.3600     547
159.4400     581
159.5200     498
159.6000     491
159.6800     479
159.7600     555
159.8400     418
159.9200     420
160.0000     517
160.0800     414
160.1600     477
160.2400     465
160.3200     407
160.4000     520
160.4800     386
160.5600     463
160.6400     446
160.7200     402
160.8000     403
160.8800     340
160.9600     472
161.0400     431
161.1200     417
161.2000     499
161.2800     320
161.3600     364
161.4400     441
161.5200     334
161.6000     339
161.6800     419
161.7600     452
161.8400     408
161.9200     388
161.9800     311

File: LDA_sample_name_56789_Psi-24_20180623-125518.txt
138.0000     100
138.0800     170
138.1600     145
138.2400     161
138.3200     224
138.4000     105
138.4800     215
138.5600     223
138.6400     184
138.7200     235
138.8000     168
138.8800     150
138.9600     220
139.0400     202
139.1200     143
139.2000     130
139.2800     142
139.3600     196
139.4400     170
139.5200     138
139.6000     216
139.6800     177
139.7600     141
139.8400     192
139.9200     208
140.0000     143
140.0800     265
140.1600     156
140.2400     222
140.3200     117
140.4000     233
140.4800     213
140.5600     263
140.6400     160
140.7200     288
140.8000     260
140.8800     241
140.9600     249
141.0400     185
141.1200     146
141.2000     217
141.2800     205
141.3600     228
141.4400     121
141.5200     186
141.6000     157
141.6800     142
141.7600     233
141.8400     196
141.9200     231
142.0000     217
142.0800     290
142.1600     207
142.2400     174
142.3200     258
142.4000     199
142.4800     274
142.5600     280
142.6400     289
142.7200     293
142.8000     233
142.8800     223
142.9600     314
143.0400     367
143.1200     306
143.2000     306
143.2800     293
143.3600     264
143.4400     290
143.5200     288
143.6000     225
143.6800     257
143.7600     262
143.8400     295
143.9200     294
144.0000     308
144.0800     246
144.1600     332
144.2400     234
144.3200     252
144.4000     286
144.4800     288
144.5600     357
144.6400     322
144.7200     205
144.8000     289
144.8800     311
144.9600     330
145.0400     293
145.1200     307
145.2000     283
145.2800     226
145.3600     381
145.4400     350
145.5200     295
145.6000     350
145.6800     295
145.7600     250
145.8400     360
145.9200     344
146.0000     183
146.0800     427
146.1600     319
146.2400     269
146.3200     346
146.4000     267
146.4800     309
146.5600     299
146.6400     309
146.7200     305
146.8000     291
146.8800     288
146.9600     331
147.0400     312
147.1200     338
147.2000     292
147.2800     269
147.3600     457
147.4400     282
147.5200     327
147.6000     378
147.6800     385
147.7600     376
147.8400     344
147.9200     411
148.0000     514
148.0800     386
148.1600     349
148.2400     397
148.3200     407
148.4000     349
148.4800     449
148.5600     420
148.6400     348
148.7200     413
148.8000     418
148.8800     390
148.9600     310
149.0400     337
149.1200     340
149.2000     253
149.2800     424
149.3600     461
149.4400     335
149.5200     360
149.6000     367
149.6800     381
149.7600     330
149.8400     365
149.9200     580
150.0000     468
150.0800     452
150.1600     425
150.2400     449
150.3200     452
150.4000     448
150.4800     378
150.5600     453
150.6400     640
150.7200     497
150.8000     519
150.8800     522
150.9600     422
151.0400     591
151.1200     538
151.2000     704
151.2800     577
151.3600     565
151.4400     663
151.5200     679
151.6000     625
151.6800     640
151.7600     600
151.8400     668
151.9200     740
152.0000     802
152.0800     737
152.1600     755
152.2400     884
152.3200     866
152.4000    1008
152.4800     958
152.5600    1218
152.6400    1233
152.7200    1066
152.8000    1230
152.8800    1366
152.9600    1368
153.0400    1346
153.1200    1372
153.2000    1494
153.2800    1593
153.3600    1753
153.4400    1588
153.5200    1731
153.6000    2151
153.6800    1959
153.7600    2280
153.8400    2156
153.9200    2177
154.0000    2013
154.0800    2181
154.1600    2239
154.2400    2305
154.3200    2356
154.4000    2201
154.4800    2402
154.5600    2273
154.6400    2263
154.7200    2025
154.8000    2149
154.8800    2120
154.9600    2196
155.0400    2099
155.1200    2085
155.2000    1920
155.2800    1812
155.3600    1851
155.4400    1654
155.5200    1606
155.6000    1477
155.6800    1494
155.7600    1548
155.8400    1519
155.9200    1436
156.0000    1304
156.0800    1316
156.1600    1304
156.2400    1065
156.3200    1092
156.4000    1021
156.4800    1015
156.5600     952
156.6400     953
156.7200     890
156.8000     871
156.8800     842
156.9600     782
157.0400     832
157.1200     823
157.2000     664
157.2800     705
157.3600     705
157.4400     571
157.5200     621
157.6000     638
157.6800     719
157.7600     725
157.8400     653
157.9200     715
158.0000     574
158.0800     665
158.1600     593
158.2400     514
158.3200     629
158.4000     557
158.4800     572
158.5600     495
158.6400     421
158.7200     511
158.8000     482
158.8800     539
158.9600     485
159.0400     496
159.1200     460
159.2000     455
159.2800     478
159.3600     477
159.4400     452
159.5200     434
159.6000     397
159.6800     408
159.7600     427
159.8400     542
159.9200     496
160.0000     397
160.0800     489
160.1600     353
160.2400     418
160.3200     458
160.4000     423
160.4800     462
160.5600     421
160.6400     402
160.7200     381
160.8000     405
160.8800     347
160.9600     365
161.0400     321
161.1200     378
161.2000     413
161.2800     327
161.3600     465
161.4400     428
161.5200     388
161.6000     332
161.6800     360
161.7600     335
161.8400     351
161.9200     315
161.9800     356

File: LDA_sample_name_56789_Psi-24_20180623-125611.txt
138.0000     302
138.0800     332
138.1600     239
138.2400     310
138.3200     251
138.4000     262
138.4800     236
138.5600     326
138.6400     222
138.7200     224
138.8000     267
138.8800     305
138.9600     343
139.0400     297
139.1200     301
139.2000     327
139.2800     331
139.3600     174
139.4400     268
139.5200     183
139.6000     299
139.6800     270
139.7600     272
139.8400     209
139.9200     272
140.0000     306
140.0800     237
140.1600     312
140.2400     292
140.3200     271
140.4000     254
140.4800     246
140.5600     251
140.6400     140
140.7200     235
140.8000     232
140.8800     281
140.9600     358
141.0400     266
141.1200     257
141.2000     284
141.2800     308
141.3600     208
141.4400     349
141.5200     194
141.6000     314
141.6800     215
141.7600     194
141.8400     302
141.9200     287
142.0000     312
142.0800     317
142.1600     241
142.2400     334
142.3200     290
142.4000     347
142.4800     383
142.5600     405
142.6400     339
142.7200     302
142.8000     363
142.8800     362
142.9600     346
143.0400     359
143.1200     314
143.2000     320
143.2800     346
143.3600     244
143.4400     391
143.5200     282
143.6000     248
143.6800     392
143.7600     353
143.8400     322
143.9200     355
144.0000     321
144.0800     389
144.1600     214
144.2400     449
144.3200     331
144.4000     284
144.4800     373
144.5600     270
144.6400     378
144.7200     416
144.8000     447
144.8800     223
144.9600     290
145.0400     366
145.1200     403
145.2000     368
145.2800     436
145.3600     320
145.4400     310
145.5200     328
145.6000     373
145.6800     302
145.7600     407
145.8400     343
145.9200     347
146.0000     274
146.0800     348
146.1600     302
146.2400     346
146.3200     241
146.4000     363
146.4800     390
146.5600     306
146.6400     282
146.7200     440
146.8000     386
146.8800     377
146.9600     364
147.0400     403
147.1200     360
147.2000     352
147.2800     394
147.3600     340
147.4400     454
147.5200     320
147.6000     301
147.6800     299
147.7600     362
147.8400     432
147.9200     457
148.0000     477
148.0800     351
148.1600     438
148.2400     359
148.3200     368
148.4000     433
148.4800     347
148.5600     355
148.6400     312
148.7200     418
148.8000     394
148.8800     390
148.9600     443
149.0400     417
149.1200     377
149.2000     475
149.2800     407
149.3600     401
149.4400     485
149.5200     422
149.6000     480
149.6800     423
149.7600     461
149.8400     399
149.9200     541
150.0000     420
150.0800     467
150.1600     599
150.2400     428
150.3200     515
150.4000     430
150.4800     503
150.5600     445
150.6400     500
150.7200     555
150.8000     536
150.8800     537
150.9600     576
151.0400     661
151.1200     685
151.2000     682
151.2800     623
151.3600     736
151.4400     605
151.5200     736
151.6000     758
151.6800     723
151.7600     784
151.8400     823
151.9200     748
152.0000     876
152.0800     787
152.1600     832
152.2400     889
152.3200    1015
152.4000    1038
152.4800     951
152.5600    1192
152.6400    1201
152.7200    1440
152.8000    1384
152.8800    1619
152.9600    1606
153.0400    1489
153.1200    1700
153.2000    1833
153.2800    1787
153.3600    1959
153.4400    2065
153.5200    2073
153.6000    2293
153.6800    2226
153.7600    2369
153.8400    2325
153.9200    2286
154.0000    2388
154.0800    2350
154.1600    2504
154.2400    2502
154.3200    2513
154.4000    2553
154.4800    2455
154.5600    2681
154.6400    2339
154.7200    2388
154.8000    2307
154.8800    2235
154.9600    2450
155.0400    2448
155.1200    2172
155.2000    1886
155.2800    1972
155.3600    1929
155.4400    1762
155.5200    1899
155.6000    1766
155.6800    1696
155.7600    1554
155.8400    1623
155.9200    1361
156.0000    1448
156.0800    1296
156.1600    1309
156.2400    1166
156.3200    1093
156.4000    1199
156.4800    1124
156.5600     980
156.6400     982
156.7200     929
156.8000     948
156.8800     897
156.9600     883
157.0400     916
157.1200     782
157.2000     746
157.2800     732
157.3600     758
157.4400     734
157.5200     644
157.6000     676
157.6800     701
157.7600     779
157.8400     597
157.9200     600
158.0000     633
158.0800     571
158.1600     592
158.2400     537
158.3200     454
158.4000     566
158.4800     437
158.5600     418
158.6400     503
158.7200     496
158.8000     560
158.8800     453
158.9600     456
159.0400     503
159.1200     505
159.2000     474
159.2800     474
159.3600     416
159.4400     517
159.5200     495
159.6000     412
159.6800     412
159.7600     368
159.8400     545
159.9200     394
160.0000     457
160.0800     509
160.1600     428
160.2400     335
160.3200     412
160.4000     405
160.4800     299
160.5600     429
160.6400     407
160.7200     378
160.8000     351
160.8800     436
160.9600     454
161.0400     379
161.1200     345
161.2000     415
161.2800     382
161.3600     206
161.4400     338
161.5200     347
161.6000     313
161.6800     272
161.7600     348
161.8400     224
161.9200     293
161.9800     286

File: LDA_sample_name_56789_Psi-24_20180623-125737.txt
138.0000      93
138.0800     144
138.1600     122
138.2400      95
138.3200      92
138.4000      90
138.4800      66
138.5600      72
138.6400      88
138.7200     109
138.8000      83
138.8800     109
138.9600      86
139.0400     107
139.1200     116
139.2000      72
139.2800     101
139.3600      64
139.4400      74
139.5200     101
139.6000      65
139.6800      91
139.7600      84
139.8400      94
139.9200      68
140.0000     100
140.0800     108
140.1600      85
140.2400      63
140.3200     108
140.4000      54
140.4800      72
140.5600      89
140.6400     102
140.7200      58
140.8000      59
140.8800      91
140.9600     103
141.0400      76
141.1200      75
141.2000     119
141.2800      97
141.3600      81
141.4400     121
141.5200      69
141.6000      76
141.6800      96
141.7600      93
141.8400      84
141.9200      81
142.0000      76
142.0800      79
142.1600      90
142.2400      69
142.3200      80
142.4000     121
142.4800      70
142.5600      85
142.6400      94
142.7200      83
142.8000      83
142.8800      90
142.9600      81
143.0400      66
143.1200     106
143.2000     114
143.2800      74
143.3600      81
143.4400     115
143.5200      71
143.6000      71
143.6800      91
143.7600      75
143.8400      81
143.9200      85
144.0000     118
144.0800      97
144.1600     113
144.2400      93
144.3200      61
144.4000     102
144.4800      67
144.5600      95
144.6400      82
144.7200      67
144.8000     110
144.8800      86
144.9600      39
145.0400      88
145.1200      90
145.2000      52
145.2800      53
145.3600      73
145.4400      66
145.5200      86
145.6000      75
145.6800     125
145.7600      75
145.8400      72
145.9200     106
146.0000      86
146.0800      75
146.1600      95
146.2400      64
146.3200     120
146.4000      79
146.4800     116
146.5600     102
146.6400      88
146.7200      72
146.8000      90
146.8800     103
146.9600      50
147.0400      89
147.1200     111
147.2000     107
147.2800      72
147.3600      82
147.4400     135
147.5200      61
147.6000      97
147.6800      54
147.7600      64
147.8400     135
147.9200      85
148.0000      45
148.0800      59
148.1600      50
148.2400      70
148.3200      89
148.4000      97
148.4800      81
148.5600      95
148.6400      82
148.7200      77
148.8000     141
148.8800      72
148.9600      87
149.0400      96
149.1200      70
149.2000      77
149.2800      77
149.3600      83
149.4400     110
149.5200      73
149.6000      66
149.6800      83
149.7600      59
149.8400      79
149.9200     108
150.0000      49
150.0800      75
150.1600      88
150.2400      77
150.3200     107
150.4000      95
150.4800      71
150.5600     109
150.6400      99
150.7200      96
150.8000      82
150.8800     102
150.9600      85
151.0400     108
151.1200      60
151.2000      78
151.2800      80
151.3600      88
151.4400     106
151.5200      77
151.6000      99
151.6800      82
151.7600      94
151.8400     106
151.9200      92
152.0000      74
152.0800      57
152.1600      80
152.2400      51
152.3200      70
152.4000      90
152.4800      48
152.5600      61
152.6400      69
152.7200      74
152.8000     104
152.8800     100
152.9600      97
153.0400      90
153.1200      86
153.2000      86
153.2800      62
153.3600      81
153.4400      48
153.5200      60
153.6000      58
153.6800      69
153.7600     104
153.8400      72
153.9200     110
154.0000     105
154.0800      89
154.1600      66
154.2400      60
154.3200      57
154.4000      95
154.4800      87
154.5600     107
154.6400      42
154.7200      43
154.8000     102
154.8800      53
154.9600      37
155.0400      57
155.1200      92
155.2000      51
155.2800      75
155.3600      51
155.4400      73
155.5200      48
155.6000      81
155.6800     113
155.7600      69
155.8400      99
155.9200      72
156.0000      69
156.0800      47
156.1600      64
156.2400      71
156.3200      45
156.4000      53
156.4800      66
156.5600      63
156.6400      92
156.7200      64
156.8000     115
156.8800      82
156.9600      28
157.0400      78
157.1200     112
157.2000     116
157.2800      63
157.3600      89
157.4400     107
157.5200      40
157.6000      64
157.6800      74
157.7600      91
157.8400      62
157.9200      54
158.0000      48
158.0800      85
158.1600      91
158.2400      61
158.3200      83
158.4000      43
158.4800      88
158.5600      74
158.6400      51
158.7200      86
158.8000      92
158.8800      29
158.9600      64
159.0400      36
159.1200     114
159.2000      77
159.2800      80
159.3600      50
159.4400      48
159.5200      67
159.6000      41
159.6800      76
159.7600     101
159.8400      78
159.9200      50
160.0000      22
160.0800      32
160.1600      28
160.2400      52
160.3200      35
160.4000      68
160.4800      60
160.5600      91
160.6400      83
160.7200      71
160.8000      73
160.8800      47
160.9600       1
161.0400      71
161.1200      44
161.2000      60
161.2800      61
161.3600      86
161.4400      68
161.5200      45
161.6000      42
161.6800      20
161.7600      73
161.8400      96
161.9200      56
161.9800     103

File: LDA_sample_name_56789_Psi-24_20180623-125814.txt
138.0000     136
138.0800     116
138.1600     132
138.2400      84
138.3200     105
138.4000     135
138.4800      85
138.5600     110
138.6400      97
138.7200      98
138.8000      91
138.8800      91
138.9600     105
139.0400     107
139.1200     109
139.2000     105
139.2800      86
139.3600      89
139.4400     102
139.5200      64
139.6000      62
139.6800     132
139.7600     109
139.8400      82
139.9200      84
140.0000      68
140.0800     101
140.1600      97
140.2400     123
140.3200     100
140.4000      65
140.4800      59
140.5600      93
140.6400     123
140.7200     163
140.8000      74
140.8800      93
140.9600     143
141.0400     148
141.1200     119
141.2000     118
141.2800     110
141.3600      76
141.4400     131
141.5200     105
141.6000     113
141.6800     109
141.7600      87
141.8400     115
141.9200     136
142.0000      88
142.0800      66
142.1600      99
142.2400     117
142.3200     146
142.4000     103
142.4800     114
142.5600      97
142.6400     141
142.7200     126
142.8000     105
142.8800      98
142.9600      68
143.0400      84
143.1200     120
143.2000      61
143.2800      88
143.3600     102
143.4400     116
143.5200      88
143.6000     127
143.6800     106
143.7600      60
143.8400     114
143.9200      70
144.0000      49
144.0800      96
144.1600     111
144.2400     103
144.3200      95
144.4000      58
144.4800     102
144.5600     100
144.6400      79
144.7200      80
144.8000      59
144.8800      89
144.9600     112
145.0400      84
145.1200      75
145.2000      90
145.2800      78
145.3600      79
145.4400     114
145.5200      94
145.6000     116
145.6800      78
145.7600      67
145.8400      48
145.9200      97
146.0000     105
146.0800      78
146.1600      62
146.2400     105
146.3200     137
146.4000      62
146.4800      70
146.5600     109
146.6400      87
146.7200     130
146.8000     111
146.8800     110
146.9600      83
147.0400      65
147.1200     128
147.2000      79
147.2800     112
147.3600      74
147.4400      44
147.5200      89
147.6000     126
147.6800     111
147.7600      61
147.8400      27
147.9200      89
148.0000      71
148.0800      92
148.1600      78
148.2400      64
148.3200      91
148.4000      84
148.4800     130
148.5600      91
148.6400      93
148.7200      43
148.8000     140
148.8800     123
148.9600      92
149.0400      37
149.1200      87
149.2000      92
149.2800      72
149.3600      50
149.4400      93
149.5200      47
149.6000      90
149.6800      71
149.7600     107
149.8400     105
149.9200     120
150.0000      92
150.0800      71
150.1600      74
150.2400     127
150.3200      91
150.4000      80
150.4800     118
150.5600      71
150.6400     112
150.7200     107
150.8000      62
150.8800      89
150.9600     108
151.0400     106
151.1200      91
151.2000      80
151.2800      78
151.3600     143
151.4400      70
151.5200      93
151.6000      84
151.6800     101
151.7600      80
151.8400      71
151.9200      79
152.0000     115
152.0800      92
152.1600     107
152.2400     107
152.3200      84
152.4000     100
152.4800      74
152.5600      63
152.6400      87
152.7200      80
152.8000      65
152.8800      95
152.9600     106
153.0400      82
153.1200     105
153.2000     114
153.2800      74
153.3600     111
153.4400      90
153.5200     137
153.6000      56
153.6800     103
153.7600      88
153.8400      75
153.9200      84
154.0000     100
154.0800      94
154.1600      68
154.2400     108
154.3200      56
154.4000      71
154.4800      84
154.5600      89
154.6400      79
154.7200      26
154.8000      96
154.8800     123
154.9600      35
155.0400      66
155.1200     129
155.2000      35
155.2800      57
155.3600     104
155.4400      66
155.5200      72
155.6000      95
155.6800      97
155.7600      75
155.8400      96
155.9200      47
156.0000      74
156.0800      78
156.1600      28
156.2400      63
156.3200      96
156.4000      43
156.4800     104
156.5600      72
156.6400     108
156.7200      43
156.8000      63
156.8800      65
156.9600      62
157.0400      70
157.1200      72
157.2000      10
157.2800      51
157.3600      79
157.4400      61
157.5200      25
157.6000      83
157.6800     130
157.7600      56
157.8400     106
157.9200      64
158.0000     100
158.0800      44
158.1600      90
158.2400      55
158.3200      32
158.4000      77
158.4800      80
158.5600      15
158.6400      77
158.7200      75
158.8000      28
158.8800      60
158.9600      44
159.0400      30
159.1200      96
159.2000      72
159.2800      68
159.3600      73
159.4400      95
159.5200     100
159.6000      97
159.6800      19
159.7600      81
159.8400      74
159.9200      72
160.0000      21
160.0800      30
160.1600      65
160.2400     107
160.3200      81
160.4000      53
160.4800     110
160.5600      79
160.6400      94
160.7200      65
160.8000      71
160.8800     101
160.9600      35
161.0400      50
161.1200      52
161.2000      38
161.2800      77
161.3600      54
161.4400      44
161.5200      34
161.6000      56
161.6800      62
161.7600      31
161.8400      78
161.9200      72
161.9800      32