Folder: xrd/XRD_Tool/XRD_Tool/bin/Debug (part 21)

File: SDD_sample_name_01234_Psi-0_20180602-173010.txt
 150.0000      115
 150.0200      134
 150.0400      120
 150.0600      131
 150.0800      150
 150.1000      167
 150.1200      119
 150.1400      117
 150.1600      119
 150.1800      133
 150.2000      121
 150.2200      135
 150.2400      138
 150.2600      139
 150.2800      120
 150.3000      143
 150.3200      128
 150.3400      149
 150.3600      153
 150.3800      155
 150.4000      133
 150.4200      153
 150.4400      140
 150.4600      138
 150.4800      147
 150.5000      157
 150.5200      161
 150.5400      131
 150.5600      177
 150.5800      155
 150.6000      178
 150.6200      152
 150.6400      171
 150.6600      160
 150.6800      162
 150.7000      193
 150.7200      151
 150.7400      158
 150.7600      150
 150.7800      160
 150.8000      170
 150.8200      157
 150.8400      168
 150.8600      161
 150.8800      160
 150.9000      144
 150.9200      165
 150.9400      153
 150.9600      172
 150.9800      164
 151.0000      192
 151.0200      176
 151.0400      188
 151.0600      182
 151.0800      185
 151.1000      162
 151.1200      188
 151.1400      188
 151.1600      179
 151.1800      190
 151.2000      217
 151.2200      197
 151.2400      215
 151.2600      201
 151.2800      191
 151.3000      205
 151.3200      181
 151.3400      179
 151.3600      193
 151.3800      204
 151.4000      182
 151.4200      210
 151.4400      201
 151.4600      205
 151.4800      223
 151.5000      188
 151.5200      231
 151.5400      207
 151.5600      201
 151.5800      233
 151.6000      225
 151.6200      237
 151.6400      211
 151.6600      212
 151.6800      237
 151.7000      214
 151.7200      217
 151.7400      215
 151.7600      220
 151.7800      238
 151.8000      258
 151.8200      233
 151.8400      268
 151.8600      212
 151.8800      242
 151.9000      271
 151.9200      258
 151.9400      230
 151.9600      256
 151.9800      230
 152.0000      236
 152.0200      229
 152.0400      281
 152.0600      275
 152.0800      261
 152.1000      269
 152.1200      279
 152.1400      285
 152.1600      245
 152.1800      261
 152.2000      281
 152.2200      264
 152.2400      254
 152.2600      288
 152.2800      282
 152.3000      284
 152.3200      301
 152.3400      269
 152.3600      275
 152.3800      277
 152.4000      295
 152.4200      314
 152.4400      290
 152.4600      298
 152.4800      308
 152.5000      294
 152.5200      292
 152.5400      295
 152.5600      324
 152.5800      296
 152.6000      328
 152.6200      303
 152.6400      341
 152.6600      316
 152.6800      310
 152.7000      344
 152.7200      306
 152.7400      336
 152.7600      332
 152.7800      360
 152.8000      318
 152.8200      378
 152.8400      355
 152.8600      385
 152.8800      362
 152.9000      352
 152.9200      351
 152.9400      349
 152.9600      349
 152.9800      386
 153.0000      362
 153.0200      334
 153.0400      381
 153.0600      351
 153.0800      379
 153.1000      347
 153.1200      373
 153.1400      375
 153.1600      364
 153.1800      408
 153.2000      385
 153.2200      414
 153.2400      426
 153.2600      399
 153.2800      410
 153.3000      386
 153.3200      398
 153.3400      377
 153.3600      344
 153.3800      407
 153.4000      390
 153.4200      393
 153.4400      401
 153.4600      398
 153.4800      415
 153.5000      406
 153.5200      402
 153.5400      446
 153.5600      384
 153.5800      414
 153.6000      405
 153.6200      425
 153.6400      422
 153.6600      415
 153.6800      406
 153.7000      460
 153.7200      427
 153.7400      419
 153.7600      414
 153.7800      422
 153.8000      428
 153.8200      411
 153.8400      435
 153.8600      437
 153.8800      445
 153.9000      454
 153.9200      474
 153.9400      453
 153.9600      456
 153.9800      447
 154.0000      475
 154.0200      445
 154.0400      488
 154.0600      441
 154.0800      457
 154.1000      446
 154.1200      480
 154.1400      492
 154.1600      505
 154.1800      466
 154.2000      425
 154.2200      439
 154.2400      485
 154.2600      411
 154.2800      442
 154.3000      456
 154.3200      478
 154.3400      447
 154.3600      471
 154.3800      464
 154.4000      489
 154.4200      502
 154.4400      505
 154.4600      493
 154.4800      477
 154.5000      506
 154.5200      440
 154.5400      467
 154.5600      469
 154.5800      468
 154.6000      438
 154.6200      491
 154.6400      471
 154.6600      491
 154.6800      464
 154.7000      480
 154.7200      457
 154.7400      516
 154.7600      520
 154.7800      486
 154.8000      483
 154.8200      476
 154.8400      495
 154.8600      490
 154.8800      450
 154.9000      451
 154.9200      518
 154.9400      515
 154.9600      463
 154.9800      469
 155.0000      477

File: SDD_sample_name_01234_Psi-0_20180602-173355.txt
 150.0000      128
 150.0200      121
 150.0400      118
 150.0600      146
 150.0800      140
 150.1000      113
 150.1200      128
 150.1400      139
 150.1600      143
 150.1800      138
 150.2000      129
 150.2200      140
 150.2400      135
 150.2600      118
 150.2800      137
 150.3000      153
 150.3200      142
 150.3400      147
 150.3600      127
 150.3800      138
 150.4000      138
 150.4200      140
 150.4400      150
 150.4600      132
 150.4800      140
 150.5000      138
 150.5200      176
 150.5400      160
 150.5600      122
 150.5800      129
 150.6000      145
 150.6200      156
 150.6400      154
 150.6600      149
 150.6800      150
 150.7000      170
 150.7200      146
 150.7400      164
 150.7600      161
 150.7800      165
 150.8000      152
 150.8200      167
 150.8400      136
 150.8600      171
 150.8800      181
 150.9000      171
 150.9200      167
 150.9400      167
 150.9600      180
 150.9800      166
 151.0000      167
 151.0200      182
 151.0400      160
 151.0600      178
 151.0800      174
 151.1000      182
 151.1200      167
 151.1400      195
 151.1600      174
 151.1800      192
 151.2000      155
 151.2200      174
 151.2400      195
 151.2600      206
 151.2800      186
 151.3000      181
 151.3200      177
 151.3400      213
 151.3600      225
 151.3800      217
 151.4000      182
 151.4200      213
 151.4400      209
 151.4600      210
 151.4800      215
 151.5000      204
 151.5200      198
 151.5400      224
 151.5600      200
 151.5800      227
 151.6000      261
 151.6200      212
 151.6400      199
 151.6600      236
 151.6800      218
 151.7000      220
 151.7200      215
 151.7400      219
 151.7600      207
 151.7800      239
 151.8000      230
 151.8200      216
 151.8400      220
 151.8600      229
 151.8800      260
 151.9000      247
 151.9200      246
 151.9400      229
 151.9600      262
 151.9800      263
 152.0000      254
 152.0200      243
 152.0400      274
 152.0600      239
 152.0800      256
 152.1000      266
 152.1200      250
 152.1400      262
 152.1600      268
 152.1800      256
 152.2000      277
 152.2200      281
 152.2400      263
 152.2600      301
 152.2800      251
 152.3000      291
 152.3200      260
 152.3400      263
 152.3600      304
 152.3800      278
 152.4000      313
 152.4200      295
 152.4400      286
 152.4600      328
 152.4800      310
 152.5000      291
 152.5200      334
 152.5400      310
 152.5600      357
 152.5800      313
 152.6000      334
 152.6200      322
 152.6400      335
 152.6600      309
 152.6800      317
 152.7000      315
 152.7200      328
 152.7400      352
 152.7600      313
 152.7800      318
 152.8000      333
 152.8200      345
 152.8400      355
 152.8600      334
 152.8800      366
 152.9000      346
 152.9200      335
 152.9400      373
 152.9600      370
 152.9800      362
 153.0000      345
 153.0200      380
 153.0400      368
 153.0600      359
 153.0800      395
 153.1000      349
 153.1200      359
 153.1400      384
 153.1600      385
 153.1800      347
 153.2000      409
 153.2200      403
 153.2400      365
 153.2600      412
 153.2800      396
 153.3000      387
 153.3200      400
 153.3400      368
 153.3600      399
 153.3800      353
 153.4000      365
 153.4200      416
 153.4400      394
 153.4600      389
 153.4800      413
 153.5000      436
 153.5200      420
 153.5400      407
 153.5600      403
 153.5800      386
 153.6000      422
 153.6200      413
 153.6400      459
 153.6600      435
 153.6800      421
 153.7000      460
 153.7200      426
 153.7400      443
 153.7600      430
 153.7800      477
 153.8000      423
 153.8200      426
 153.8400      423
 153.8600      472
 153.8800      406
 153.9000      438
 153.9200      442
 153.9400      416
 153.9600      439
 153.9800      497
 154.0000      443
 154.0200      411
 154.0400      444
 154.0600      482
 154.0800      460
 154.1000      501
 154.1200      476
 154.1400      454
 154.1600      462
 154.1800      431
 154.2000      454
 154.2200      490
 154.2400      443
 154.2600      481
 154.2800      482
 154.3000      464
 154.3200      483
 154.3400      498
 154.3600      492
 154.3800      485
 154.4000      500
 154.4200      486
 154.4400      522
 154.4600      498
 154.4800      499
 154.5000      492
 154.5200      459
 154.5400      520
 154.5600      511
 154.5800      476
 154.6000      509
 154.6200      496
 154.6400      470
 154.6600      500
 154.6800      472
 154.7000      445
 154.7200      480
 154.7400      451
 154.7600      472
 154.7800      488
 154.8000      471
 154.8200      531
 154.8400      472
 154.8600      494
 154.8800      461
 154.9000      475
 154.9200      475
 154.9400      494
 154.9600      465
 154.9800      506
 155.0000      487

File: SDD_sample_name_01234_Psi-0_20180602-173818.txt
 150.0000      109
 150.0200      127
 150.0400      127
 150.0600      131
 150.0800      132
 150.1000      131
 150.1200      113
 150.1400      133
 150.1600      137
 150.1800      134
 150.2000      153
 150.2200      127
 150.2400      139
 150.2600      135
 150.2800      157
 150.3000      152
 150.3200      144
 150.3400      128
 150.3600      138
 150.3800      154
 150.4000      143
 150.4200      148
 150.4400      130
 150.4600      156
 150.4800      151
 150.5000      131
 150.5200      154
 150.5400      148
 150.5600      145
 150.5800      154
 150.6000      150
 150.6200      166
 150.6400      149
 150.6600      183
 150.6800      153
 150.7000      167
 150.7200      153
 150.7400      152
 150.7600      157
 150.7800      187
 150.8000      151
 150.8200      151
 150.8400      174
 150.8600      157
 150.8800      162
 150.9000      168
 150.9200      167
 150.9400      165
 150.9600      175
 150.9800      184
 151.0000      177
 151.0200      186
 151.0400      177
 151.0600      171
 151.0800      162
 151.1000      187
 151.1200      191
 151.1400      176
 151.1600      186
 151.1800      205
 151.2000      178
 151.2200      189
 151.2400      178
 151.2600      182
 151.2800      184
 151.3000      190
 151.3200      210
 151.3400      214
 151.3600      198
 151.3800      199
 151.4000      179
 151.4200      183
 151.4400      186
 151.4600      216
 151.4800      199
 151.5000      220
 151.5200      237
 151.5400      232
 151.5600      219
 151.5800      183
 151.6000      223
 151.6200      247
 151.6400      213
 151.6600      194
 151.6800      250
 151.7000      245
 151.7200      212
 151.7400      234
 151.7600      251
 151.7800      251
 151.8000      237
 151.8200      232
 151.8400      221
 151.8600      257
 151.8800      256
 151.9000      231
 151.9200      258
 151.9400      259
 151.9600      264
 151.9800      254
 152.0000      257
 152.0200      249
 152.0400      244
 152.0600      233
 152.0800      261
 152.1000      242
 152.1200      284
 152.1400      256
 152.1600      275
 152.1800      273
 152.2000      247
 152.2200      273
 152.2400      287
 152.2600      265
 152.2800      276
 152.3000      266
 152.3200      271
 152.3400      271
 152.3600      298
 152.3800      272
 152.4000      293
 152.4200      270
 152.4400      266
 152.4600      313
 152.4800      323
 152.5000      292
 152.5200      330
 152.5400      325
 152.5600      308
 152.5800      334
 152.6000      316
 152.6200      312
 152.6400      327
 152.6600      295
 152.6800      336
 152.7000      320
 152.7200      323
 152.7400      322
 152.7600      340
 152.7800      334
 152.8000      355
 152.8200      335
 152.8400      327
 152.8600      338
 152.8800      338
 152.9000      350
 152.9200      359
 152.9400      323
 152.9600      353
 152.9800      334
 153.0000      331
 153.0200      378
 153.0400      344
 153.0600      349
 153.0800      354
 153.1000      325
 153.1200      376
 153.1400      370
 153.1600      400
 153.1800      380
 153.2000      391
 153.2200      370
 153.2400      388
 153.2600      369
 153.2800      404
 153.3000      406
 153.3200      423
 153.3400      404
 153.3600      402
 153.3800      415
 153.4000      386
 153.4200      475
 153.4400      429
 153.4600      410
 153.4800      400
 153.5000      430
 153.5200      373
 153.5400      423
 153.5600      430
 153.5800      426
 153.6000      427
 153.6200      436
 153.6400      432
 153.6600      400
 153.6800      407
 153.7000      427
 153.7200      429
 153.7400      447
 153.7600      462
 153.7800      449
 153.8000      451
 153.8200      458
 153.8400      451
 153.8600      448
 153.8800      449
 153.9000      451
 153.9200      399
 153.9400      480
 153.9600      467
 153.9800      452
 154.0000      447
 154.0200      448
 154.0400      481
 154.0600      470
 154.0800      430
 154.1000      486
 154.1200      473
 154.1400      507
 154.1600      475
 154.1800      490
 154.2000      447
 154.2200      465
 154.2400      496
 154.2600      459
 154.2800      503
 154.3000      504
 154.3200      474
 154.3400      464
 154.3600      475
 154.3800      498
 154.4000      496
 154.4200      512
 154.4400      447
 154.4600      472
 154.4800      451
 154.5000      497
 154.5200      453
 154.5400      494
 154.5600      480
 154.5800      486
 154.6000      498
 154.6200      494
 154.6400      451
 154.6600      489
 154.6800      480
 154.7000      479
 154.7200      497
 154.7400      467
 154.7600      488
 154.7800      477
 154.8000      494
 154.8200      511
 154.8400      473
 154.8600      480
 154.8800      487
 154.9000      485
 154.9200      478
 154.9400      485
 154.9600      480
 154.9800      503
 155.0000      481

File: SDD_sample_name_01234_Psi-0_20180602-174148.txt
 150.0000      139
 150.0200      126
 150.0400      104
 150.0600      122
 150.0800      108
 150.1000      142
 150.1200      142
 150.1400      153
 150.1600      122
 150.1800      146
 150.2000      122
 150.2200      148
 150.2400      134
 150.2600      157
 150.2800      125
 150.3000      134
 150.3200      144
 150.3400      152
 150.3600      145
 150.3800      134
 150.4000      131
 150.4200      146
 150.4400      146
 150.4600      140
 150.4800      151
 150.5000      160
 150.5200      152
 150.5400      127
 150.5600      170
 150.5800      162
 150.6000      138
 150.6200      121
 150.6400      159
 150.6600      143
 150.6800      171
 150.7000      159
 150.7200      171
 150.7400      140
 150.7600      164
 150.7800      190
 150.8000      165
 150.8200      155
 150.8400      186
 150.8600      177
 150.8800      191
 150.9000      167
 150.9200      174
 150.9400      154
 150.9600      174
 150.9800      166
 151.0000      166
 151.0200      163
 151.0400      170
 151.0600      185
 151.0800      166
 151.1000      166
 151.1200      186
 151.1400      202
 151.1600      185
 151.1800      179
 151.2000      181
 151.2200      177
 151.2400      195
 151.2600      201
 151.2800      210
 151.3000      190
 151.3200      182
 151.3400      225
 151.3600      193
 151.3800      210
 151.4000      186
 151.4200      201
 151.4400      197
 151.4600      201
 151.4800      200
 151.5000      222
 151.5200      203
 151.5400      225
 151.5600      246
 151.5800      260
 151.6000      216
 151.6200      211
 151.6400      223
 151.6600      207
 151.6800      212
 151.7000      210
 151.7200      213
 151.7400      224
 151.7600      230
 151.7800      219
 151.8000      228
 151.8200      233
 151.8400      263
 151.8600      224
 151.8800      249
 151.9000      261
 151.9200      262
 151.9400      258
 151.9600      276
 151.9800      229
 152.0000      251
 152.0200      247
 152.0400      257
 152.0600      263
 152.0800      267
 152.1000      259
 152.1200      270
 152.1400      273
 152.1600      245
 152.1800      273
 152.2000      280
 152.2200      263
 152.2400      289
 152.2600      306
 152.2800      285
 152.3000      300
 152.3200      270
 152.3400      282
 152.3600      313
 152.3800      296
 152.4000      270
 152.4200      308
 152.4400      288
 152.4600      295
 152.4800      331
 152.5000      289
 152.5200      334
 152.5400      278
 152.5600      323
 152.5800      290
 152.6000      303
 152.6200      356
 152.6400      314
 152.6600      327
 152.6800      363
 152.7000      325
 152.7200      325
 152.7400      325
 152.7600      297
 152.7800      354
 152.8000      320
 152.8200      311
 152.8400      334
 152.8600      335
 152.8800      349
 152.9000      378
 152.9200      352
 152.9400      349
 152.9600      351
 152.9800      384
 153.0000      370
 153.0200      359
 153.0400      371
 153.0600      350
 153.0800      402
 153.1000      379
 153.1200      368
 153.1400      380
 153.1600      368
 153.1800      393
 153.2000      362
 153.2200      410
 153.2400      379
 153.2600      382
 153.2800      390
 153.3000      376
 153.3200      388
 153.3400      402
 153.3600      393
 153.3800      381
 153.4000      413
 153.4200      373
 153.4400      383
 153.4600      428
 153.4800      369
 153.5000      430
 153.5200      412
 153.5400      444
 153.5600      412
 153.5800      401
 153.6000      415
 153.6200      443
 153.6400      393
 153.6600      445
 153.6800      407
 153.7000      448
 153.7200      428
 153.7400      435
 153.7600      437
 153.7800      405
 153.8000      437
 153.8200      480
 153.8400      440
 153.8600      464
 153.8800      436
 153.9000      450
 153.9200      467
 153.9400      491
 153.9600      461
 153.9800      471
 154.0000      477
 154.0200      462
 154.0400      433
 154.0600      456
 154.0800      460
 154.1000      463
 154.1200      457
 154.1400      477
 154.1600      475
 154.1800      446
 154.2000      483
 154.2200      460
 154.2400      481
 154.2600      445
 154.2800      500
 154.3000      439
 154.3200      500
 154.3400      438
 154.3600      507
 154.3800      457
 154.4000      501
 154.4200      475
 154.4400      484
 154.4600      475
 154.4800      501
 154.5000      477
 154.5200      488
 154.5400      493
 154.5600      478
 154.5800      498
 154.6000      444
 154.6200      486
 154.6400      451
 154.6600      488
 154.6800      476
 154.7000      490
 154.7200      493
 154.7400      462
 154.7600      523
 154.7800      457
 154.8000      486
 154.8200      553
 154.8400      486
 154.8600      484
 154.8800      504
 154.9000      478
 154.9200      502
 154.9400      498
 154.9600      470
 154.9800      480
 155.0000      455

File: SDD_sample_name_01234_Psi-0_20180602-175652.txt
 150.0000      143
 150.0200      102
 150.0400      130
 150.0600      119
 150.0800      124
 150.1000      126
 150.1200      127
 150.1400      137
 150.1600      119
 150.1800      130
 150.2000      133
 150.2200      150
 150.2400      130
 150.2600      144
 150.2800      131
 150.3000      135
 150.3200      139
 150.3400      142
 150.3600      120
 150.3800      143
 150.4000      171
 150.4200      127
 150.4400      138
 150.4600      142
 150.4800      138
 150.5000      151
 150.5200      148
 150.5400      156
 150.5600      152
 150.5800      142
 150.6000      136
 150.6200      152
 150.6400      153
 150.6600      160
 150.6800      158
 150.7000      159
 150.7200      159
 150.7400      168
 150.7600      185
 150.7800      161
 150.8000      175
 150.8200      169
 150.8400      150
 150.8600      171
 150.8800      192
 150.9000      182
 150.9200      166
 150.9400      172
 150.9600      157
 150.9800      172
 151.0000      189
 151.0200      158
 151.0400      177
 151.0600      174
 151.0800      223
 151.1000      199
 151.1200      183
 151.1400      184
 151.1600      216
 151.1800      177
 151.2000      171
 151.2200      197
 151.2400      180
 151.2600      181
 151.2800      189
 151.3000      187
 151.3200      174
 151.3400      218
 151.3600      204
 151.3800      193
 151.4000      220
 151.4200      209
 151.4400      206
 151.4600      208
 151.4800      203
 151.5000      193
 151.5200      199
 151.5400      199
 151.5600      225
 151.5800      219
 151.6000      230
 151.6200      240
 151.6400      197
 151.6600      204
 151.6800      225
 151.7000      216
 151.7200      256
 151.7400      249
 151.7600      242
 151.7800      247
 151.8000      261
 151.8200      246
 151.8400      259
 151.8600      232
 151.8800      223
 151.9000      265
 151.9200      219
 151.9400      241
 151.9600      280
 151.9800      241
 152.0000      237
 152.0200      255
 152.0400      267
 152.0600      286
 152.0800      291
 152.1000      247
 152.1200      257
 152.1400      253
 152.1600      260
 152.1800      223
 152.2000      271
 152.2200      275
 152.2400      270
 152.2600      281
 152.2800      238
 152.3000      299
 152.3200      288
 152.3400      305
 152.3600      286
 152.3800      296
 152.4000      302
 152.4200      293
 152.4400      298
 152.4600      295
 152.4800      279
 152.5000      290
 152.5200      323
 152.5400      315
 152.5600      287
 152.5800      321
 152.6000      309
 152.6200      297
 152.6400      291
 152.6600      327
 152.6800      310
 152.7000      286
 152.7200      351
 152.7400      307
 152.7600      311
 152.7800      307
 152.8000      339
 152.8200      338
 152.8400      332
 152.8600      337
 152.8800      372
 152.9000      337
 152.9200      348
 152.9400      350
 152.9600      335
 152.9800      379
 153.0000      371
 153.0200      363
 153.0400      384
 153.0600      362
 153.0800      334
 153.1000      342
 153.1200      381
 153.1400      393
 153.1600      366
 153.1800      350
 153.2000      362
 153.2200      354
 153.2400      394
 153.2600      411
 153.2800      422
 153.3000      388
 153.3200      405
 153.3400      381
 153.3600      424
 153.3800      343
 153.4000      411
 153.4200      398
 153.4400      400
 153.4600      405
 153.4800      385
 153.5000      398
 153.5200      423
 153.5400      411
 153.5600      424
 153.5800      397
 153.6000      453
 153.6200      391
 153.6400      410
 153.6600      423
 153.6800      462
 153.7000      412
 153.7200      431
 153.7400      448
 153.7600      452
 153.7800      445
 153.8000      434
 153.8200      446
 153.8400      465
 153.8600      413
 153.8800      432
 153.9000      434
 153.9200      476
 153.9400      466
 153.9600      422
 153.9800      438
 154.0000      447
 154.0200      483
 154.0400      442
 154.0600      450
 154.0800      486
 154.1000      482
 154.1200      443
 154.1400      500
 154.1600      504
 154.1800      481
 154.2000      452
 154.2200      486
 154.2400      476
 154.2600      462
 154.2800      474
 154.3000      473
 154.3200      502
 154.3400      468
 154.3600      491
 154.3800      476
 154.4000      435
 154.4200      485
 154.4400      501
 154.4600      479
 154.4800      480
 154.5000      497
 154.5200      494
 154.5400      503
 154.5600      494
 154.5800      457
 154.6000      500
 154.6200      480
 154.6400      471
 154.6600      491
 154.6800      477
 154.7000      480
 154.7200      462
 154.7400      520
 154.7600      428
 154.7800      462
 154.8000      444
 154.8200      537
 154.8400      448
 154.8600      482
 154.8800      520
 154.9000      496
 154.9200      487
 154.9400      502
 154.9600      461
 154.9800      475
 155.0000      473