Folder: xrd/XRD_Tool/XRD_Tool/bin/Debug (part 4)

File: LDA_sample_name_56789_Psi-0_20180603-122744.txt
128.0000     274
128.0800     250
128.1600     252
128.2400     215
128.3200     270
128.4000     279
128.4800     253
128.5600     259
128.6400     265
128.7200     243
128.8000     249
128.8800     270
128.9600     234
129.0400     234
129.1200     236
129.2000     250
129.2800     228
129.3600     256
129.4400     276
129.5200     251
129.6000     271
129.6800     259
129.7600     265
129.8400     245
129.9200     239
130.0000     267
130.0800     228
130.1600     282
130.2400     283
130.3200     254
130.4000     267
130.4800     257
130.5600     239
130.6400     257
130.7200     245
130.8000     256
130.8800     257
130.9600     246
131.0400     258
131.1200     274
131.2000     271
131.2800     247
131.3600     240
131.4400     305
131.5200     249
131.6000     262
131.6800     269
131.7600     276
131.8400     276
131.9200     257
132.0000     251
132.0800     248
132.1600     266
132.2400     266
132.3200     282
132.4000     294
132.4800     276
132.5600     266
132.6400     277
132.7200     270
132.8000     286
132.8800     260
132.9600     276
133.0400     282
133.1200     262
133.2000     273
133.2800     253
133.3600     262
133.4400     269
133.5200     249
133.6000     249
133.6800     298
133.7600     257
133.8400     251
133.9200     249
134.0000     257
134.0800     259
134.1600     274
134.2400     293
134.3200     270
134.4000     262
134.4800     270
134.5600     261
134.6400     261
134.7200     272
134.8000     261
134.8800     292
134.9600     254
135.0400     241
135.1200     253
135.2000     260
135.2800     269
135.3600     274
135.4400     247
135.5200     272
135.6000     279
135.6800     287
135.7600     259
135.8400     290
135.9200     262
136.0000     283
136.0800     251
136.1600     255
136.2400     246
136.3200     274
136.4000     283
136.4800     268
136.5600     275
136.6400     277
136.7200     274
136.8000     283
136.8800     242
136.9600     262
137.0400     276
137.1200     267
137.2000     281
137.2800     241
137.3600     243
137.4400     292
137.5200     264
137.6000     283
137.6800     311
137.7600     277
137.8400     277
137.9200     282
138.0000     273
138.0800     258
138.1600     260
138.2400     293
138.3200     282
138.4000     286
138.4800     271
138.5600     298
138.6400     275
138.7200     285
138.8000     277
138.8800     229
138.9600     293
139.0400     283
139.1200     259
139.2000     267
139.2800     298
139.3600     268
139.4400     293
139.5200     292
139.6000     290
139.6800     283
139.7600     259
139.8400     272
139.9200     240
140.0000     251
140.0800     274
140.1600     290
140.2400     271
140.3200     272
140.4000     281
140.4800     293
140.5600     308
140.6400     283
140.7200     278
140.8000     277
140.8800     293
140.9600     273
141.0400     259
141.1200     294
141.2000     294
141.2800     280
141.3600     273
141.4400     274
141.5200     268
141.6000     255
141.6800     292
141.7600     260
141.8400     302
141.9200     287
142.0000     274
142.0800     287
142.1600     297
142.2400     251
142.3200     275
142.4000     282
142.4800     280
142.5600     247
142.6400     272
142.7200     252
142.8000     270
142.8800     267
142.9600     270
143.0400     264
143.1200     293
143.2000     262
143.2800     260
143.3600     274
143.4400     280
143.5200     248
143.6000     298
143.6800     289
143.7600     246
143.8400     285
143.9200     267
144.0000     281
144.0800     275
144.1600     275
144.2400     271
144.3200     290
144.4000     298
144.4800     260
144.5600     279
144.6400     276
144.7200     277
144.8000     274
144.8800     282
144.9600     298
145.0400     264
145.1200     274
145.2000     280
145.2800     281
145.3600     233
145.4400     276
145.5200     278
145.6000     232
145.6800     281
145.7600     279
145.8400     273
145.9200     226
146.0000     266
146.0800     279
146.1600     275
146.2400     272
146.3200     289
146.4000     279
146.4800     280
146.5600     254
146.6400     276
146.7200     239
146.8000     261
146.8800     252
146.9600     285
147.0400     275
147.1200     275
147.2000     268
147.2800     270
147.3600     289
147.4400     293
147.5200     287
147.6000     241
147.6800     272
147.7600     303
147.8400     275
147.9200     270
148.0000     298
148.0800     236
148.1600     283
148.2400     303
148.3200     272
148.4000     280
148.4800     238
148.5600     277
148.6400     292
148.7200     304
148.8000     284
148.8800     267
148.9600     293
149.0400     253
149.1200     266
149.2000     286
149.2800     261
149.3600     259
149.4400     271
149.5200     285
149.6000     271
149.6800     288
149.7600     269
149.8400     299
149.9200     285
150.0000     297
150.0800     296
150.1600     278
150.2400     279
150.3200     277
150.4000     273
150.4800     260
150.5600     321
150.6400     251
150.7200     274
150.8000     297
150.8800     285
150.9600     318
151.0400     277
151.1200     263
151.2000     264
151.2800     277
151.3600     293
151.4400     268
151.5200     277
151.6000     294
151.6800     279
151.7600     300
151.8400     285
151.9200     338
151.9600     319

File: LDA_sample_name_56789_Psi-0_20180603-123016.txt
143.0000     242
143.0800     284
143.1600     252
143.2400     243
143.3200     252
143.4000     265
143.4800     268
143.5600     254
143.6400     271
143.7200     270
143.8000     270
143.8800     262
143.9600     291
144.0400     246
144.1200     271
144.2000     284
144.2800     306
144.3600     256
144.4400     269
144.5200     264
144.6000     280
144.6800     234
144.7600     257
144.8400     235
144.9200     245
145.0000     276
145.0800     246
145.1600     270
145.2400     244
145.3200     256
145.4000     248
145.4800     252
145.5600     221
145.6400     276
145.7200     257
145.8000     260
145.8800     261
145.9600     244
146.0400     266
146.1200     300
146.2000     269
146.2800     269
146.3600     239
146.4400     261
146.5200     253
146.6000     261
146.6800     267
146.7600     258
146.8400     277
146.9200     250
147.0000     243
147.0800     280
147.1600     246
147.2400     251
147.3200     273
147.4000     301
147.4800     293
147.5600     292
147.6400     297
147.7200     267
147.8000     280
147.8800     272
147.9600     277
148.0400     283
148.1200     308
148.2000     283
148.2800     315
148.3600     289
148.4400     259
148.5200     327
148.6000     270
148.6800     267
148.7600     280
148.8400     307
148.9200     261
149.0000     294
149.0800     296
149.1600     276
149.2400     290
149.3200     300
149.4000     283
149.4800     308
149.5600     287
149.6400     297
149.7200     297
149.8000     320
149.8800     323
149.9600     326
150.0400     287
150.1200     309
150.2000     312
150.2800     327
150.3600     335
150.4400     337
150.5200     323
150.6000     332
150.6800     349
150.7600     359
150.8400     284
150.9200     317
151.0000     349
151.0800     329
151.1600     339
151.2400     368
151.3200     359
151.4000     347
151.4800     371
151.5600     362
151.6400     366
151.7200     363
151.8000     413
151.8800     369
151.9600     418
152.0400     396
152.1200     411
152.2000     413
152.2800     418
152.3600     436
152.4400     527
152.5200     461
152.6000     551
152.6800     546
152.7600     541
152.8400     536
152.9200     602
153.0000     593
153.0800     642
153.1600     677
153.2400     704
153.3200     687
153.4000     710
153.4800     731
153.5600     790
153.6400     737
153.7200     749
153.8000     764
153.8800     762
153.9600     806
154.0400     717
154.1200     729
154.2000     820
154.2800     810
154.3600     777
154.4400     767
154.5200     771
154.6000     743
154.6800     767
154.7600     737
154.8400     706
154.9200     693
155.0000     687
155.0800     682
155.1600     652
155.2400     608
155.3200     643
155.4000     570
155.4800     611
155.5600     584
155.6400     565
155.7200     578
155.8000     505
155.8800     468
155.9600     536
156.0400     474
156.1200     443
156.2000     506
156.2800     454
156.3600     447
156.4400     451
156.5200     422
156.6000     418
156.6800     414
156.7600     388
156.8400     385
156.9200     395
157.0000     390
157.0800     411
157.1600     371
157.2400     354
157.3200     403
157.4000     344
157.4800     364
157.5600     360
157.6400     380
157.7200     341
157.8000     374
157.8800     356
157.9600     334
158.0400     345
158.1200     349
158.2000     326
158.2800     302
158.3600     302
158.4400     299
158.5200     321
158.6000     304
158.6800     313
158.7600     299
158.8400     308
158.9200     349
159.0000     332
159.0800     292
159.1600     315
159.2400     287
159.3200     313
159.4000     321
159.4800     315
159.5600     316
159.6400     295
159.7200     278
159.8000     320
159.8800     302
159.9600     322
160.0400     290
160.1200     256
160.2000     263
160.2800     279
160.3600     307
160.4400     295
160.5200     299
160.6000     300
160.6800     289
160.7600     284
160.8400     272
160.9200     345
161.0000     298
161.0800     280
161.1600     296
161.2400     284
161.3200     284
161.4000     265
161.4800     280
161.5600     287
161.6400     229
161.7200     266
161.8000     267
161.8800     292
161.9600     266
162.0400     252
162.1200     302
162.2000     291
162.2800     284
162.3600     242
162.4400     308
162.5200     268
162.6000     299
162.6800     271
162.7600     288
162.8400     287
162.9200     288
163.0000     283
163.0800     257
163.1600     284
163.2400     281
163.3200     294
163.4000     270
163.4800     302
163.5600     253
163.6400     282
163.7200     248
163.8000     259
163.8800     266
163.9600     296
164.0400     294
164.1200     276
164.2000     268
164.2800     249
164.3600     270
164.4400     275
164.5200     272
164.6000     282
164.6800     274
164.7600     264
164.8400     251
164.9200     243
165.0000     285
165.0800     276
165.1600     237
165.2400     260
165.3200     285
165.4000     279
165.4800     253
165.5600     280
165.6400     259
165.7200     265
165.8000     250
165.8800     290
165.9600     277
166.0400     266
166.1200     252
166.2000     239
166.2800     261
166.3600     266
166.4400     273
166.5200     259
166.6000     267
166.6800     247
166.7600     263
166.8400     260
166.9200     266
166.9600     262

File: LDA_sample_name_56789_Psi-0_20180622-204409.txt
127.2000      33
127.2000      -1
127.2000      12
127.2000      33
127.2000      42
127.2000      36
127.2000      56
127.2000       8
127.2000      56
127.2000      96
127.2000      34
127.2000       8
127.2000      18
127.2000       0
127.2000      14
127.2000      30
127.2000      22
127.2000      15
127.2000      47
127.2000      47
127.2000      43
127.2000      10
127.2000      77
127.2000      16
127.2000      -4
127.2000       8
127.2000      32
127.2000     -16
127.2000      42
127.2000       1
127.2000      21
127.2000      39
127.2000      28
127.2000      49
127.2000      45
127.2000      20
127.2000      24
127.2000      46
127.2000      35
127.2000      44
127.2000      31
127.2000      35
127.2000      43
127.2000      59
127.2000      21
127.2000      12
127.2000      44
127.2000      30
127.2000      22
127.2000      70
127.2000      74
127.2000      26
127.2000      -5
127.2000      47
127.2000      73
127.2000      54
127.2000      -5
127.2000      62
127.2000      38
127.2000      45
127.2000      62
127.2000      48
127.2000      26
127.2000      53
127.2000      53
127.2000      -7
127.2000      46
127.2000      31
127.2000      72
127.2000      51
127.2000      47
127.2000      44
127.2000      47
127.2000      48
127.2000      44
127.2000      28
127.2000      37
127.2000      39
127.2000      19
127.2000      24
127.2000      67
127.2000      58
127.2000      12
127.2000      33
127.2000      37
127.2000      23
127.2000      52
127.2000      29
127.2000      28
127.2000      49
127.2000      58
127.2000      10
127.2000      30
127.2000       7
127.2000      62
127.2000      33
127.2000     102
127.2000     115
127.2000      77
127.2000      70
127.2000      41
127.2000      28
127.2000      37
127.2000      66
127.2000      25
127.2000      37
127.2000      47
127.2000       7
127.2000      32
127.2000       7
127.2000      68
127.2000      76
127.2000      77
127.2000      58
127.2000      63
127.2000      39
127.2000      25
127.2000      80
127.2000      62
127.2000      27
127.2000      22
127.2000      42
127.2000      13
127.2000      51
127.2000      62
127.2000      44
127.2000      15
127.2000      39
127.2000      40
127.2000      14
127.2000       0
127.2000      50
127.2000      70
127.2000      41
127.2000      44
127.2000      29
127.2000      41
127.2000      49
127.2000      33
127.2000      55
127.2000      43
127.2000      -5
127.2000      33
127.2000     121
127.2000      29
127.2000      45
127.2000      62
127.2000      65
127.2000      20
127.2000      27
127.2000      60
127.2000      64
127.2000      56
127.2000      29
127.2000      32
127.2000      56
127.2000      54
127.2000      64
127.2000      60
127.2000      35
127.2000      46
127.2000      22
127.2000      32
127.2000      50
127.2000      51
127.2000      41
127.2000      56
127.2000       2
127.2000      12
127.2000      12
127.2000      45
127.2000      82
127.2000      21
127.2000      18
127.2000      40
127.2000      33
127.2000      40
127.2000      62
127.2000       9
127.2000       1
127.2000      48
127.2000      51
127.2000      61
127.2000      42
127.2000      67
127.2000      58
127.2000      33
127.2000      58
127.2000      78
127.2000      72
127.2000      37
127.2000      25
127.2000      31
127.2000      21
127.2000      80
127.2000      60
127.2000      39
127.2000      19
127.2000      18
127.2000      25
127.2000      31
127.2000      43
127.2000      79
127.2000      65
127.2000      40
127.2000      77
127.2000      45
127.2000      76
127.2000      70
127.2000      46
127.2000      30
127.2000       8
127.2000      15
127.2000      26
127.2000      -2
127.2000      55
127.2000      36
127.2000      12
127.2000      50
127.2000      19
127.2000      71
127.2000      29
127.2000      75
127.2000      10
127.2000      38
127.2000      78
127.2000       4
127.2000      32
127.2000      39
127.2000       7
127.2000      68
127.2000      46
127.2000      29
127.2000      61
127.2000      33
127.2000      47
127.2000      23
127.2000      40
127.2000      30
127.2000      23
127.2000      50
127.2000      12
127.2000      15
127.2000      61
127.2000      35
127.2000      61
127.2000      58
127.2000      61
127.2000      55
127.2000      24
127.2000      14
127.2000      22
127.2000      75
127.2000      41
127.2000      35
127.2000      73
127.2000      35
127.2000      42
127.2000      95
127.2000      54
127.2000      36
127.2000      63
127.2000      75
127.2000      55
127.2000      53
127.2000      13
127.2000      11
127.2000      48
127.2000      39
127.2000      51
127.2000      42
127.2000      25
127.2000      53
127.2000      63
127.2000      48
127.2000      95
127.2000      72
127.2000      61
127.2000      19
127.2000      77
127.2000      47
127.2000      87
127.2000      59
127.2000      58
127.2000      78
127.2000      27
127.2000      58
127.2000      57
127.2000      71
127.2000      36
127.2000      60
127.2000      48
127.2000      46
127.2000      77
127.2000      72
127.2000      72
127.2000      58
127.2000      33
127.2000      53
127.2000      71
127.2000      26

File: LDA_sample_name_56789_Psi-0_20180622-204947.txt
127.2000      20
127.2800      53
127.3600      53
127.4400       5
127.5200      42
127.6000      50
127.6800      26
127.7600      42
127.8400      13
127.9200      57
128.0000      67
128.0800      37
128.1600      65
128.2400      29
128.3200      42
128.4000      42
128.4800       9
128.5600      47
128.6400      26
128.7200      18
128.8000      11
128.8800      40
128.9600      50
129.0400       6
129.1200      26
129.2000       7
129.2800      19
129.3600      32
129.4400      62
129.5200      23
129.6000      23
129.6800      57
129.7600      21
129.8400       0
129.9200      33
130.0000      40
130.0800      10
130.1600      41
130.2400      -7
130.3200      30
130.4000      32
130.4800      36
130.5600      16
130.6400     -14
130.7200      52
130.8000      50
130.8800       4
130.9600      18
131.0400       3
131.1200      29
131.2000      -2
131.2800      14
131.3600      45
131.4400      53
131.5200      38
131.6000      49
131.6800      38
131.7600      57
131.8400       1
131.9200      71
132.0000      61
132.0800      11
132.1600      36
132.2400      73
132.3200      27
132.4000      25
132.4800      63
132.5600      55
132.6400      16
132.7200     -15
132.8000      38
132.8800      45
132.9600      26
133.0400       7
133.1200      21
133.2000      24
133.2800      61
133.3600      61
133.4400      28
133.5200      74
133.6000      46
133.6800      13
133.7600      35
133.8400      39
133.9200      21
134.0000      42
134.0800      45
134.1600      22
134.2400      53
134.3200      68
134.4000      30
134.4800      74
134.5600      48
134.6400      29
134.7200      29
134.8000      35
134.8800      52
134.9600      33
135.0400      20
135.1200      21
135.2000      34
135.2800      35
135.3600      43
135.4400      14
135.5200      59
135.6000      75
135.6800      51
135.7600      32
135.8400      29
135.9200      16
136.0000      27
136.0800       3
136.1600      64
136.2400      62
136.3200      32
136.4000      20
136.4800     107
136.5600      40
136.6400      23
136.7200      15
136.8000      64
136.8800      14
136.9600      32
137.0400      43
137.1200      43
137.2000      31
137.2800      48
137.3600      16
137.4400      33
137.5200      45
137.6000      44
137.6800      71
137.7600      40
137.8400      35
137.9200      36
138.0000       8
138.0800      62
138.1600      49
138.2400       5
138.3200      65
138.4000      24
138.4800      26
138.5600      43
138.6400      36
138.7200      27
138.8000      49
138.8800       1
138.9600      45
139.0400      21
139.1200      77
139.2000      67
139.2800      53
139.3600      44
139.4400      64
139.5200      68
139.6000      88
139.6800      46
139.7600      43
139.8400      48
139.9200      78
140.0000      60
140.0800      15
140.1600      37
140.2400      33
140.3200      34
140.4000      55
140.4800      48
140.5600      26
140.6400      61
140.7200      26
140.8000      42
140.8800      26
140.9600      37
141.0400      43
141.1200      17
141.2000      24
141.2800      35
141.3600      39
141.4400      55
141.5200      72
141.6000      16
141.6800      29
141.7600      37
141.8400      33
141.9200      46
142.0000      38
142.0800      42
142.1600      32
142.2400      71
142.3200      41
142.4000      54
142.4800      46
142.5600      51
142.6400      28
142.7200      56
142.8000      62
142.8800       8
142.9600      36
143.0400      28
143.1200      26
143.2000      46
143.2800      47
143.3600      68
143.4400      43
143.5200      39
143.6000      57
143.6800      18
143.7600      46
143.8400      26
143.9200      55
144.0000      64
144.0800      64
144.1600      56
144.2400      36
144.3200      29
144.4000      25
144.4800      45
144.5600      33
144.6400      42
144.7200      70
144.8000       5
144.8800      25
144.9600      56
145.0400       2
145.1200      35
145.2000      42
145.2800      43
145.3600      52
145.4400      48
145.5200       3
145.6000      65
145.6800      84
145.7600      41
145.8400      50
145.9200      50
146.0000      47
146.0800      35
146.1600      97
146.2400      19
146.3200      36
146.4000      91
146.4800      37
146.5600      58
146.6400      39
146.7200      36
146.8000      16
146.8800      65
146.9600       0
147.0400      81
147.1200      36
147.2000      67
147.2800      76
147.3600      13
147.4400      63
147.5200      56
147.6000      81
147.6800      54
147.7600      66
147.8400      74
147.9200      28
148.0000      49
148.0800      35
148.1600      37
148.2400      12
148.3200      33
148.4000      59
148.4800       1
148.5600      89
148.6400      49
148.7200      39
148.8000      74
148.8800      53
148.9600      45
149.0400      77
149.1200      31
149.2000      65
149.2800      54
149.3600      41
149.4400      65
149.5200      72
149.6000     103
149.6800      45
149.7600      88
149.8400      78
149.9200      49
150.0000      84
150.0800      52
150.1600      64
150.2400     107
150.3200      63
150.4000      38
150.4800      68
150.5600      68
150.6400      62
150.7200      77
150.8000      68
150.8800      36
150.9600     108
151.0400     125
151.1200      85
151.1600      52

File: LDA_sample_name_56789_Psi-0_20180622-205646.txt
127.2000     -11
127.2800       9
127.3600      77
127.4400      18
127.5200      34
127.6000      16
127.6800     -11
127.7600      58
127.8400      21
127.9200       0
128.0000      -7
128.0800       6
128.1600      -5
128.2400      -8
128.3200      -1
128.4000      17
128.4800      40
128.5600      16
128.6400      37
128.7200     -34
128.8000      78
128.8800       0
128.9600      24
129.0400      18
129.1200      21
129.2000      15
129.2800       4
129.3600      15
129.4400     -16
129.5200      11
129.6000       3
129.6800      41
129.7600       5
129.8400      65
129.9200      23
130.0000      23
130.0800      38
130.1600      34
130.2400      24
130.3200      18
130.4000      33
130.4800     -12
130.5600      43
130.6400     -26
130.7200      10
130.8000      -3
130.8800      21
130.9600      53
131.0400       5
131.1200      37
131.2000      -7
131.2800      54
131.3600      43
131.4400      27
131.5200      20
131.6000      43
131.6800       0
131.7600      63
131.8400      15
131.9200     -21
132.0000      27
132.0800       0
132.1600      -2
132.2400       9
132.3200      17
132.4000      26
132.4800      25
132.5600      10
132.6400      58
132.7200      23
132.8000      17
132.8800      27
132.9600      73
133.0400      36
133.1200      15
133.2000       3
133.2800      89
133.3600      16
133.4400      14
133.5200      19
133.6000      51
133.6800      35
133.7600      24
133.8400       7
133.9200      14
134.0000      29
134.0800      18
134.1600      10
134.2400       5
134.3200      -4
134.4000      20
134.4800      47
134.5600      -7
134.6400      -4
134.7200      24
134.8000      28
134.8800      20
134.9600      35
135.0400      57
135.1200      29
135.2000      50
135.2800      -5
135.3600      33
135.4400       8
135.5200      35
135.6000      14
135.6800       8
135.7600      15
135.8400       2
135.9200      18
136.0000       9
136.0800      28
136.1600      40
136.2400      24
136.3200      79
136.4000      34
136.4800      56
136.5600      -2
136.6400      38
136.7200      36
136.8000      29
136.8800      57
136.9600      72
137.0400      16
137.1200      47
137.2000       8
137.2800      18
137.3600      17
137.4400      26
137.5200      11
137.6000      56
137.6800      41
137.7600      35
137.8400      14
137.9200      24
138.0000      13
138.0800      23
138.1600      30
138.2400      16
138.3200      64
138.4000       0
138.4800      -3
138.5600      32
138.6400      17
138.7200      62
138.8000      33
138.8800       9
138.9600      63
139.0400      12
139.1200      64
139.2000      47
139.2800      34
139.3600      15
139.4400       0
139.5200       0
139.6000     -15
139.6800      11
139.7600      26
139.8400      21
139.9200      17
140.0000      45
140.0800       8
140.1600      44
140.2400      49
140.3200      32
140.4000      -8
140.4800      -1
140.5600      -4
140.6400      30
140.7200      18
140.8000      13
140.8800      21
140.9600      62
141.0400      21
141.1200      36
141.2000      44
141.2800      36
141.3600      71
141.4400       5
141.5200      20
141.6000      60
141.6800       6
141.7600      -1
141.8400      27
141.9200     -13
142.0000       0
142.0800      35
142.1600      30
142.2400      22
142.3200       5
142.4000      44
142.4800       3
142.5600      -6
142.6400       0
142.7200      53
142.8000      15
142.8800      66
142.9600      10
143.0400      18
143.1200       7
143.2000      36
143.2800      17
143.3600      30
143.4400      54
143.5200      46
143.6000      -5
143.6800      56
143.7600      15
143.8400       1
143.9200      20
144.0000     -12
144.0800      41
144.1600      35
144.2400      37
144.3200      39
144.4000      92
144.4800      40
144.5600      54
144.6400      27
144.7200      21
144.8000      14
144.8800      55
144.9600      12
145.0400       3
145.1200       0
145.2000      17
145.2800      55
145.3600      45
145.4400      39
145.5200      25
145.6000      44
145.6800      64
145.7600      28
145.8400      71
145.9200      53
146.0000       5
146.0800       1
146.1600      55
146.2400       7
146.3200     -11
146.4000      11
146.4800      54
146.5600      27
146.6400      30
146.7200      25
146.8000      28
146.8800     -17
146.9600      58
147.0400      35
147.1200      44
147.2000      19
147.2800      26
147.3600      34
147.4400      -2
147.5200      23
147.6000       7
147.6800       8
147.7600      17
147.8400       0
147.9200      24
148.0000      36
148.0800      49
148.1600      22
148.2400      16
148.3200      38
148.4000      67
148.4800      43
148.5600      17
148.6400      25
148.7200      39
148.8000      33
148.8800      28
148.9600      33
149.0400      26
149.1200     -19
149.2000      63
149.2800      11
149.3600      53
149.4400       6
149.5200      38
149.6000      66
149.6800      21
149.7600      21
149.8400      39
149.9200      17
150.0000      72
150.0800      35
150.1600       0
150.2400      51
150.3200      24
150.4000      82
150.4800      36
150.5600      54
150.6400      59
150.7200      -3
150.8000      10
150.8800      92
150.9600      41
151.0400      62
151.1200      82
151.1600      54