Folder: xrd/XRD_Tool/XRD_Tool/bin/Debug (part 14)

File: LDA_sample_name_56789_Psi-45_20180603-122850.txt
128.0000     261
128.0800     260
128.1600     239
128.2400     224
128.3200     259
128.4000     246
128.4800     254
128.5600     253
128.6400     219
128.7200     253
128.8000     301
128.8800     248
128.9600     277
129.0400     235
129.1200     272
129.2000     263
129.2800     251
129.3600     251
129.4400     245
129.5200     265
129.6000     256
129.6800     228
129.7600     241
129.8400     274
129.9200     234
130.0000     269
130.0800     228
130.1600     270
130.2400     257
130.3200     259
130.4000     248
130.4800     247
130.5600     263
130.6400     256
130.7200     238
130.8000     238
130.8800     247
130.9600     250
131.0400     218
131.1200     258
131.2000     262
131.2800     244
131.3600     237
131.4400     242
131.5200     249
131.6000     284
131.6800     271
131.7600     264
131.8400     272
131.9200     252
132.0000     264
132.0800     258
132.1600     293
132.2400     279
132.3200     247
132.4000     282
132.4800     267
132.5600     276
132.6400     272
132.7200     294
132.8000     273
132.8800     296
132.9600     243
133.0400     267
133.1200     263
133.2000     278
133.2800     272
133.3600     250
133.4400     261
133.5200     258
133.6000     275
133.6800     252
133.7600     257
133.8400     286
133.9200     260
134.0000     249
134.0800     304
134.1600     235
134.2400     277
134.3200     284
134.4000     265
134.4800     289
134.5600     278
134.6400     254
134.7200     267
134.8000     238
134.8800     288
134.9600     265
135.0400     256
135.1200     254
135.2000     280
135.2800     271
135.3600     250
135.4400     294
135.5200     254
135.6000     281
135.6800     237
135.7600     276
135.8400     248
135.9200     268
136.0000     263
136.0800     293
136.1600     256
136.2400     268
136.3200     243
136.4000     276
136.4800     278
136.5600     270
136.6400     247
136.7200     271
136.8000     258
136.8800     257
136.9600     259
137.0400     263
137.1200     248
137.2000     279
137.2800     253
137.3600     285
137.4400     277
137.5200     287
137.6000     266
137.6800     279
137.7600     276
137.8400     252
137.9200     292
138.0000     298
138.0800     269
138.1600     282
138.2400     253
138.3200     273
138.4000     269
138.4800     292
138.5600     275
138.6400     297
138.7200     269
138.8000     279
138.8800     295
138.9600     248
139.0400     267
139.1200     282
139.2000     289
139.2800     253
139.3600     241
139.4400     252
139.5200     253
139.6000     259
139.6800     280
139.7600     290
139.8400     299
139.9200     256
140.0000     247
140.0800     263
140.1600     282
140.2400     290
140.3200     270
140.4000     304
140.4800     278
140.5600     265
140.6400     290
140.7200     263
140.8000     296
140.8800     297
140.9600     254
141.0400     279
141.1200     271
141.2000     281
141.2800     289
141.3600     282
141.4400     250
141.5200     278
141.6000     268
141.6800     272
141.7600     259
141.8400     284
141.9200     268
142.0000     290
142.0800     271
142.1600     274
142.2400     281
142.3200     242
142.4000     283
142.4800     300
142.5600     257
142.6400     258
142.7200     251
142.8000     260
142.8800     277
142.9600     281
143.0400     293
143.1200     288
143.2000     264
143.2800     282
143.3600     269
143.4400     272
143.5200     290
143.6000     282
143.6800     287
143.7600     264
143.8400     290
143.9200     279
144.0000     254
144.0800     268
144.1600     258
144.2400     259
144.3200     274
144.4000     261
144.4800     286
144.5600     247
144.6400     287
144.7200     272
144.8000     289
144.8800     250
144.9600     259
145.0400     244
145.1200     272
145.2000     274
145.2800     283
145.3600     295
145.4400     228
145.5200     276
145.6000     295
145.6800     264
145.7600     282
145.8400     263
145.9200     274
146.0000     265
146.0800     278
146.1600     274
146.2400     257
146.3200     274
146.4000     269
146.4800     258
146.5600     274
146.6400     290
146.7200     279
146.8000     298
146.8800     300
146.9600     269
147.0400     261
147.1200     282
147.2000     269
147.2800     264
147.3600     291
147.4400     247
147.5200     289
147.6000     247
147.6800     257
147.7600     262
147.8400     235
147.9200     303
148.0000     305
148.0800     286
148.1600     304
148.2400     284
148.3200     255
148.4000     228
148.4800     276
148.5600     283
148.6400     308
148.7200     271
148.8000     271
148.8800     288
148.9600     259
149.0400     288
149.1200     298
149.2000     284
149.2800     284
149.3600     303
149.4400     248
149.5200     302
149.6000     284
149.6800     280
149.7600     289
149.8400     274
149.9200     258
150.0000     257
150.0800     265
150.1600     282
150.2400     274
150.3200     295
150.4000     268
150.4800     286
150.5600     270
150.6400     266
150.7200     257
150.8000     279
150.8800     300
150.9600     261
151.0400     255
151.1200     268
151.2000     281
151.2800     277
151.3600     279
151.4400     276
151.5200     283
151.6000     278
151.6800     303
151.7600     269
151.8400     320
151.9200     293
151.9600     282

File: LDA_sample_name_56789_Psi-45_20180622-235734.txt
138.0000     263
138.0800     280
138.1600     164
138.2400     335
138.3200     312
138.4000     167
138.4800     218
138.5600     164
138.6400     293
138.7200     265
138.8000     231
138.8800     290
138.9600     179
139.0400     251
139.1200     193
139.2000     277
139.2800     268
139.3600     128
139.4400     263
139.5200     156
139.6000     301
139.6800     248
139.7600     225
139.8400     174
139.9200     212
140.0000     268
140.0800     275
140.1600     230
140.2400     185
140.3200     186
140.4000     354
140.4800     310
140.5600     198
140.6400     151
140.7200     279
140.8000     239
140.8800     294
140.9600     303
141.0400     265
141.1200     204
141.2000     195
141.2800     213
141.3600     196
141.4400     201
141.5200     212
141.6000     217
141.6800     276
141.7600     185
141.8400     315
141.9200     215
142.0000     172
142.0800     307
142.1600     223
142.2400     277
142.3200     338
142.4000     239
142.4800     316
142.5600     306
142.6400     312
142.7200     406
142.8000     316
142.8800     297
142.9600     304
143.0400     264
143.1200     260
143.2000     342
143.2800     237
143.3600     297
143.4400     247
143.5200     199
143.6000     285
143.6800     288
143.7600     272
143.8400     321
143.9200     385
144.0000     362
144.0800     300
144.1600     284
144.2400     301
144.3200     300
144.4000     247
144.4800     283
144.5600     408
144.6400     308
144.7200     356
144.8000     266
144.8800     283
144.9600     401
145.0400     313
145.1200     371
145.2000     269
145.2800     349
145.3600     299
145.4400     428
145.5200     389
145.6000     332
145.6800     325
145.7600     316
145.8400     350
145.9200     270
146.0000     274
146.0800     327
146.1600     314
146.2400     352
146.3200     278
146.4000     348
146.4800     323
146.5600     291
146.6400     343
146.7200     275
146.8000     347
146.8800     311
146.9600     279
147.0400     294
147.1200     346
147.2000     221
147.2800     237
147.3600     326
147.4400     425
147.5200     292
147.6000     285
147.6800     327
147.7600     367
147.8400     353
147.9200     367
148.0000     486
148.0800     306
148.1600     364
148.2400     366
148.3200     336
148.4000     285
148.4800     437
148.5600     383
148.6400     407
148.7200     333
148.8000     318
148.8800     393
148.9600     355
149.0400     373
149.1200     399
149.2000     336
149.2800     528
149.3600     408
149.4400     399
149.5200     438
149.6000     374
149.6800     407
149.7600     404
149.8400     410
149.9200     373
150.0000     337
150.0800     397
150.1600     401
150.2400     438
150.3200     329
150.4000     543
150.4800     432
150.5600     567
150.6400     366
150.7200     436
150.8000     447
150.8800     387
150.9600     496
151.0400     445
151.1200     458
151.2000     564
151.2800     576
151.3600     538
151.4400     642
151.5200     515
151.6000     612
151.6800     573
151.7600     673
151.8400     712
151.9200     585
152.0000     753
152.0800     789
152.1600     711
152.2400     690
152.3200     702
152.4000     737
152.4800     775
152.5600     821
152.6400     996
152.7200    1096
152.8000     962
152.8800    1082
152.9600    1151
153.0400    1210
153.1200    1255
153.2000    1187
153.2800    1358
153.3600    1475
153.4400    1583
153.5200    1558
153.6000    1784
153.6800    1772
153.7600    1719
153.8400    1692
153.9200    1840
154.0000    2008
154.0800    1839
154.1600    2027
154.2400    2144
154.3200    1925
154.4000    2137
154.4800    2193
154.5600    2319
154.6400    2318
154.7200    2245
154.8000    2043
154.8800    2392
154.9600    2336
155.0400    2292
155.1200    2289
155.2000    2170
155.2800    2088
155.3600    2245
155.4400    2019
155.5200    1906
155.6000    2023
155.6800    1996
155.7600    1791
155.8400    1723
155.9200    1643
156.0000    1687
156.0800    1880
156.1600    1656
156.2400    1575
156.3200    1497
156.4000    1393
156.4800    1550
156.5600    1194
156.6400    1228
156.7200    1334
156.8000    1229
156.8800    1208
156.9600    1068
157.0400    1105
157.1200     960
157.2000     884
157.2800    1012
157.3600     879
157.4400     706
157.5200     759
157.6000     721
157.6800     903
157.7600     789
157.8400     747
157.9200     696
158.0000     789
158.0800     680
158.1600     753
158.2400     680
158.3200     581
158.4000     673
158.4800     555
158.5600     567
158.6400     578
158.7200     580
158.8000     557
158.8800     509
158.9600     424
159.0400     538
159.1200     514
159.2000     561
159.2800     487
159.3600     538
159.4400     426
159.5200     482
159.6000     420
159.6800     414
159.7600     420
159.8400     421
159.9200     385
160.0000     382
160.0800     438
160.1600     403
160.2400     447
160.3200     433
160.4000     434
160.4800     340
160.5600     486
160.6400     498
160.7200     325
160.8000     318
160.8800     352
160.9600     291
161.0400     348
161.1200     282
161.2000     244
161.2800     289
161.3600     307
161.4400     386
161.5200     342
161.6000     325
161.6800     311
161.7600     263
161.8400     358
161.9200     204
161.9800     217

File: LDA_sample_name_56789_Psi-45_20180622-235844.txt
141.0000     257
141.0800     236
141.1600     321
141.2400     280
141.3200     326
141.4000     243
141.4800     325
141.5600     202
141.6400     371
141.7200     275
141.8000     227
141.8800     253
141.9600     329
142.0400     302
142.1200     278
142.2000     254
142.2800     252
142.3600     287
142.4400     345
142.5200     242
142.6000     253
142.6800     297
142.7600     166
142.8400     263
142.9200     141
143.0000     330
143.0800     351
143.1600     336
143.2400     386
143.3200     233
143.4000     214
143.4800     266
143.5600     235
143.6400     322
143.7200     283
143.8000     306
143.8800     202
143.9600     322
144.0400     346
144.1200     282
144.2000     295
144.2800     357
144.3600     217
144.4400     368
144.5200     312
144.6000     191
144.6800     358
144.7600     294
144.8400     370
144.9200     267
145.0000     342
145.0800     361
145.1600     248
145.2400     289
145.3200     446
145.4000     353
145.4800     395
145.5600     325
145.6400     321
145.7200     346
145.8000     342
145.8800     360
145.9600     414
146.0400     350
146.1200     344
146.2000     305
146.2800     267
146.3600     361
146.4400     325
146.5200     364
146.6000     309
146.6800     273
146.7600     323
146.8400     470
146.9200     319
147.0000     363
147.0800     487
147.1600     403
147.2400     335
147.3200     512
147.4000     333
147.4800     345
147.5600     290
147.6400     355
147.7200     346
147.8000     306
147.8800     394
147.9600     428
148.0400     359
148.1200     418
148.2000     475
148.2800     391
148.3600     407
148.4400     346
148.5200     325
148.6000     375
148.6800     409
148.7600     451
148.8400     312
148.9200     373
149.0000     414
149.0800     402
149.1600     344
149.2400     430
149.3200     351
149.4000     448
149.4800     358
149.5600     422
149.6400     422
149.7200     394
149.8000     517
149.8800     583
149.9600     400
150.0400     442
150.1200     532
150.2000     468
150.2800     414
150.3600     394
150.4400     658
150.5200     514
150.6000     500
150.6800     462
150.7600     522
150.8400     527
150.9200     537
151.0000     551
151.0800     510
151.1600     570
151.2400     659
151.3200     628
151.4000     651
151.4800     687
151.5600     588
151.6400     709
151.7200     753
151.8000     697
151.8800     858
151.9600     668
152.0400     777
152.1200     800
152.2000     755
152.2800     792
152.3600     866
152.4400     840
152.5200     924
152.6000     850
152.6800    1062
152.7600    1085
152.8400    1034
152.9200    1232
153.0000    1020
153.0800    1173
153.1600    1318
153.2400    1335
153.3200    1513
153.4000    1393
153.4800    1625
153.5600    1534
153.6400    1647
153.7200    1791
153.8000    1763
153.8800    2013
153.9600    1951
154.0400    2182
154.1200    2050
154.2000    2147
154.2800    2172
154.3600    2247
154.4400    2492
154.5200    2356
154.6000    2449
154.6800    2447
154.7600    2344
154.8400    2483
154.9200    2377
155.0000    2321
155.0800    2319
155.1600    2352
155.2400    2255
155.3200    2256
155.4000    2259
155.4800    2070
155.5600    2308
155.6400    2125
155.7200    2108
155.8000    2038
155.8800    2006
155.9600    1905
156.0400    1686
156.1200    1811
156.2000    1709
156.2800    1575
156.3600    1597
156.4400    1513
156.5200    1483
156.6000    1400
156.6800    1245
156.7600    1292
156.8400    1393
156.9200    1071
157.0000    1028
157.0800    1076
157.1600    1146
157.2400     942
157.3200     895
157.4000     916
157.4800     862
157.5600     853
157.6400     976
157.7200     801
157.8000     868
157.8800     821
157.9600     884
158.0400     820
158.1200     639
158.2000     721
158.2800     683
158.3600     671
158.4400     607
158.5200     715
158.6000     664
158.6800     688
158.7600     524
158.8400     561
158.9200     535
159.0000     661
159.0800     586
159.1600     562
159.2400     434
159.3200     569
159.4000     474
159.4800     470
159.5600     472
159.6400     421
159.7200     408
159.8000     429
159.8800     531
159.9600     403
160.0400     426
160.1200     361
160.2000     461
160.2800     426
160.3600     410
160.4400     321
160.5200     379
160.6000     450
160.6800     534
160.7600     418
160.8400     472
160.9200     416
161.0000     468
161.0800     517
161.1600     517
161.2400     423
161.3200     372
161.4000     247
161.4800     441
161.5600     414
161.6400     301
161.7200     380
161.8000     312
161.8800     403
161.9600     462
162.0400     367
162.1200     419
162.2000     398
162.2800     431
162.3600     313
162.4400     442
162.5200     271
162.6000     458
162.6800     452
162.7600     501
162.8400     404
162.9200     370
163.0000     309
163.0800     376
163.1600     202
163.2400     289
163.3200     350
163.4000     328
163.4800     369
163.5600     320
163.6400     346
163.7200     366
163.8000     326
163.8800     244
163.9600     300
164.0400     336
164.1200     329
164.2000     399
164.2800     351
164.3600     306
164.4400     361
164.5200     302
164.6000     311
164.6800     350
164.7600     360
164.8400     321
164.9200     349
164.9800     163

File: LDA_sample_name_56789_Psi-45_20180623-000633.txt
138.0000     204
138.0800     223
138.1600     238
138.2400     169
138.3200     122
138.4000     138
138.4800     215
138.5600     195
138.6400     169
138.7200     199
138.8000     162
138.8800      82
138.9600     176
139.0400     238
139.1200     206
139.2000     196
139.2800     222
139.3600     247
139.4400     230
139.5200     245
139.6000     218
139.6800     212
139.7600     248
139.8400     230
139.9200     263
140.0000     168
140.0800     258
140.1600     195
140.2400     268
140.3200     264
140.4000     169
140.4800     216
140.5600     272
140.6400     234
140.7200     238
140.8000     266
140.8800     257
140.9600     241
141.0400     256
141.1200     179
141.2000     206
141.2800     284
141.3600     290
141.4400     283
141.5200     250
141.6000     206
141.6800     293
141.7600     185
141.8400     235
141.9200     268
142.0000     272
142.0800     240
142.1600     237
142.2400     247
142.3200     321
142.4000     374
142.4800     320
142.5600     258
142.6400     347
142.7200     262
142.8000     271
142.8800     280
142.9600     264
143.0400     283
143.1200     332
143.2000     391
143.2800     348
143.3600     311
143.4400     293
143.5200     317
143.6000     324
143.6800     289
143.7600     384
143.8400     289
143.9200     343
144.0000     298
144.0800     386
144.1600     390
144.2400     405
144.3200     369
144.4000     364
144.4800     259
144.5600     308
144.6400     370
144.7200     318
144.8000     422
144.8800     361
144.9600     354
145.0400     301
145.1200     328
145.2000     413
145.2800     360
145.3600     407
145.4400     420
145.5200     300
145.6000     362
145.6800     360
145.7600     360
145.8400     399
145.9200     365
146.0000     307
146.0800     384
146.1600     381
146.2400     437
146.3200     373
146.4000     317
146.4800     384
146.5600     355
146.6400     460
146.7200     340
146.8000     388
146.8800     381
146.9600     431
147.0400     396
147.1200     432
147.2000     378
147.2800     397
147.3600     472
147.4400     445
147.5200     380
147.6000     476
147.6800     459
147.7600     489
147.8400     415
147.9200     463
148.0000     517
148.0800     440
148.1600     429
148.2400     471
148.3200     404
148.4000     452
148.4800     503
148.5600     480
148.6400     420
148.7200     542
148.8000     451
148.8800     429
148.9600     423
149.0400     458
149.1200     462
149.2000     427
149.2800     556
149.3600     433
149.4400     538
149.5200     438
149.6000     497
149.6800     567
149.7600     519
149.8400     442
149.9200     526
150.0000     480
150.0800     484
150.1600     447
150.2400     499
150.3200     510
150.4000     563
150.4800     545
150.5600     535
150.6400     579
150.7200     573
150.8000     591
150.8800     465
150.9600     505
151.0400     483
151.1200     598
151.2000     594
151.2800     567
151.3600     587
151.4400     647
151.5200     713
151.6000     672
151.6800     686
151.7600     647
151.8400     724
151.9200     781
152.0000     722
152.0800     668
152.1600     657
152.2400     817
152.3200     846
152.4000     830
152.4800     791
152.5600     998
152.6400    1007
152.7200     917
152.8000     996
152.8800    1058
152.9600    1067
153.0400    1085
153.1200    1210
153.2000    1275
153.2800    1252
153.3600    1241
153.4400    1371
153.5200    1405
153.6000    1470
153.6800    1586
153.7600    1573
153.8400    1625
153.9200    1740
154.0000    1562
154.0800    1797
154.1600    1974
154.2400    1779
154.3200    1902
154.4000    1875
154.4800    1970
154.5600    2048
154.6400    2181
154.7200    2029
154.8000    2150
154.8800    2056
154.9600    2118
155.0400    2081
155.1200    2038
155.2000    2058
155.2800    2108
155.3600    1925
155.4400    1761
155.5200    1966
155.6000    2007
155.6800    1866
155.7600    1778
155.8400    1823
155.9200    1598
156.0000    1646
156.0800    1488
156.1600    1599
156.2400    1598
156.3200    1365
156.4000    1480
156.4800    1452
156.5600    1329
156.6400    1256
156.7200    1228
156.8000    1170
156.8800    1197
156.9600    1181
157.0400    1145
157.1200    1192
157.2000    1017
157.2800     957
157.3600     977
157.4400     941
157.5200     889
157.6000     876
157.6800     953
157.7600     972
157.8400     899
157.9200     830
158.0000     844
158.0800     782
158.1600     849
158.2400     833
158.3200     720
158.4000     747
158.4800     849
158.5600     699
158.6400     759
158.7200     744
158.8000     670
158.8800     682
158.9600     696
159.0400     649
159.1200     700
159.2000     745
159.2800     687
159.3600     638
159.4400     611
159.5200     573
159.6000     657
159.6800     655
159.7600     663
159.8400     622
159.9200     699
160.0000     660
160.0800     664
160.1600     618
160.2400     701
160.3200     604
160.4000     555
160.4800     581
160.5600     602
160.6400     612
160.7200     654
160.8000     663
160.8800     641
160.9600     602
161.0400     533
161.1200     582
161.2000     633
161.2800     507
161.3600     586
161.4400     580
161.5200     555
161.6000     560
161.6800     537
161.7600     544
161.8400     520
161.9200     598
161.9800     558

File: SDD_sample_name_001_Psi-0_20180528-025055.txt
 150.0000       64
 150.0400       50
 150.0800       66
 150.1200       59
 150.1600       62
 150.2000       55
 150.2400       78
 150.2800       60
 150.3200       73
 150.3600       73
 150.4000       65
 150.4400       62
 150.4800       74
 150.5200       63
 150.5600       58
 150.6000       76
 150.6400       55
 150.6800       72
 150.7200       68
 150.7600       62
 150.8000       64
 150.8400       75
 150.8800       77
 150.9200       80
 150.9600       84
 151.0000       87
 151.0400       67
 151.0800       76
 151.1200       90
 151.1600       90
 151.2000       75
 151.2400       95
 151.2800       77
 151.3200       96
 151.3600       82
 151.4000       98
 151.4400       92
 151.4800       84
 151.5200       86
 151.5600       96
 151.6000       96
 151.6400      106
 151.6800       80
 151.7200       93
 151.7600      110
 151.8000      116
 151.8400       94
 151.8800      101
 151.9200      114
 151.9600      127
 152.0000      122
 152.0400      105
 152.0800      129
 152.1200      120
 152.1600      108
 152.2000      103
 152.2400      127
 152.2800      133
 152.3200      137
 152.3600      126
 152.4000      139
 152.4400      137
 152.4800      165
 152.5200      139
 152.5600      153
 152.6000      140
 152.6400      153
 152.6800      167
 152.7200      156
 152.7600      187
 152.8000      173
 152.8400      174
 152.8800      162
 152.9200      182
 152.9600      194
 153.0000      189
 153.0400      201
 153.0800      225
 153.1200      239
 153.1600      250
 153.2000      234
 153.2400      208
 153.2800      250
 153.3200      247
 153.3600      250
 153.4000      283
 153.4400      274
 153.4800      282
 153.5200      308
 153.5600      285
 153.6000      314
 153.6400      311
 153.6800      327
 153.7200      307
 153.7600      336
 153.8000      340
 153.8400      346
 153.8800      379
 153.9200      363
 153.9600      412
 154.0000      372
 154.0400      382
 154.0800      423
 154.1200      407
 154.1600      403
 154.2000      424
 154.2400      404
 154.2800      434
 154.3200      436
 154.3600      465
 154.4000      420
 154.4400      441
 154.4800      437
 154.5200      463
 154.5600      437
 154.6000      478
 154.6400      477
 154.6800      481
 154.7200      477
 154.7600      476
 154.8000      475
 154.8400      492
 154.8800      453
 154.9200      476
 154.9600      497
 155.0000      473
 155.0400      455
 155.0800      421
 155.1200      451
 155.1600      423
 155.2000      477
 155.2400      458
 155.2800      434
 155.3200      445
 155.3600      428
 155.4000      426
 155.4400      416
 155.4800      402
 155.5200      416
 155.5600      382
 155.6000      394
 155.6400      379
 155.6800      361
 155.7200      396
 155.7600      358
 155.8000      340
 155.8400      353
 155.8800      334
 155.9200      350
 155.9600      296
 156.0000      292
 156.0400      311
 156.0800      314
 156.1200      305
 156.1600      294
 156.2000      270
 156.2400      278
 156.2800      278
 156.3200      269
 156.3600      248
 156.4000      261
 156.4400      250
 156.4800      257
 156.5200      238
 156.5600      261
 156.6000      234
 156.6400      222
 156.6800      225
 156.7200      215
 156.7600      222
 156.8000      222
 156.8400      192
 156.8800      200
 156.9200      177
 156.9600      194
 157.0000      171
 157.0400      194
 157.0800      186
 157.1200      180
 157.1600      185
 157.2000      169
 157.2400      154
 157.2800      154
 157.3200      155
 157.3600      153
 157.4000      160
 157.4400      173
 157.4800      159
 157.5200      156
 157.5600      134
 157.6000      154
 157.6400      132
 157.6800      123
 157.7200      179
 157.7600      152
 157.8000      114
 157.8400      129
 157.8800      126
 157.9200      136
 157.9600      125
 158.0000      110
 158.0400      119
 158.0800      113
 158.1200       96
 158.1600      124
 158.2000      111
 158.2400      102
 158.2800       99
 158.3200      123
 158.3600      100
 158.4000      122
 158.4400      115
 158.4800       97
 158.5200      102
 158.5600      109
 158.6000       83
 158.6400       81
 158.6800       70
 158.7200       85
 158.7600       95
 158.8000       92
 158.8400       85
 158.8800       90
 158.9200       87
 158.9600       85
 159.0000       97
 159.0400       93
 159.0800       96
 159.1200       77
 159.1600       96
 159.2000       96
 159.2400       57
 159.2800       84
 159.3200       94
 159.3600       99
 159.4000       83
 159.4400       91
 159.4800       76
 159.5200       69
 159.5600       76
 159.6000       83
 159.6400       78
 159.6800       83
 159.7200       94
 159.7600       77
 159.8000       93
 159.8400       73
 159.8800       58
 159.9200       67
 159.9600       67
 160.0000       69