Folder: xrd/XRD_Tool/XRD_Tool/bin/Debug (part 2)

File: 20180602-log.txt
[2018-06-02 17:11:59 180]Log Start******************************************************

[2018-06-02 17:12:11 906] [UserLogin] login succeed!user=administrator,pwd=123456

[2018-06-02 17:12:12 015] [DeviceInit] Init Start
2F0D
[2018-06-02 17:12:12 015] UART Send: [/
]
0D0A433D
[2018-06-02 17:12:12 171] UART Recv: @1[
C=]
5246460D
[2018-06-02 17:12:12 171] UART Send: [RFF
]
5246460D0A2B2B3130310D0A433D
[2018-06-02 17:12:12 312] UART Recv: @1[RFF
++101
C=]
524B4D0D
[2018-06-02 17:12:12 312] UART Send: [RKM
]
524B4D0D30392E39330D200D30342E37390D0A433D
[2018-06-02 17:12:12 453] UART Recv: @1[RKM
09.93

04.79
C=]

[2018-06-02 17:12:13 163] [DeviceInit] warmup check=True

[2018-06-02 17:12:14 222] [DeviceInit] warmup confirm=False

[2018-06-02 17:12:14 222] [DeviceInit] warmup skip, GetDeviceZeroPoint
5041520D
[2018-06-02 17:12:14 222] UART Send: [PAR
]
5041520D0A4C574C33300D0A55504C37350D0A535045302E30320D0A535450302E30320D0A494E54302E30350D0A4D584E31300D0A4D5854310D0A4D5853302E3030350D0A4D4F44330D0A574156312E35343138340D0A54535A2034352E333530300D0A54445A2031392E333135300D0A0A433D
[2018-06-02 17:12:14 379] UART Recv: @1[PAR
LWL30
UPL75
SPE0.02
STP0.02
INT0.05
MXN10
MXT1
MXS0.005
MOD3
WAV1.54184
TSZ 45.3500
TDZ 19.3150

C=]
5041460D
[2018-06-02 17:12:14 379] UART Send: [PAF
]
5041460D
[2018-06-02 17:12:14 520] UART Recv: @1[PAF
]
0A5A54412D3030332E333634370D0A0A5A54422D3030312E313037390D0A0A5A54582D3035302E343033350D0A0A5A54592D3035302E383132350D0A0A5A545A2D3030352E303030300D0A0A5354503030302E303230300D0A0A494E543030312E303030300D0A0A535045303034380D0A0A433D
[2018-06-02 17:12:14 802] UART Recv: @1[
ZTA-003.3647

ZTB-001.1079

ZTX-050.4035

ZTY-050.8125

ZTZ-005.0000

STP000.0200

INT001.0000

SPE0048

C=]
534450310D
[2018-06-02 17:12:14 802] UART Send: [SDP1
]
534450310D
[2018-06-02 17:12:14 942] UART Recv: @1[SDP1
]
0A433D
[2018-06-02 17:12:15 083] UART Recv: @1[
C=]

[2018-06-02 17:12:15 083] [DeviceInit] Init Finish

[2018-06-02 17:12:16 317] [Parent] Menu Measure

[2018-06-02 17:12:16 472] [Measure] check 5 Axis=Unchecked

[2018-06-02 17:12:17 901] [Measure] ButtonStart

[2018-06-02 17:12:33 149] [Measure] ButtonStart

[2018-06-02 17:12:55 259] [Measure] Measure Start
2F0D
[2018-06-02 17:13:00 504] UART Send: [/
]
0D0A433D
[2018-06-02 17:13:00 579] UART Recv: @2[
C=]
4D4F44330D
[2018-06-02 17:13:01 390] UART Send: [MOD3
]
4D4F44330D0A4D4F44330D0A4D4F44330D0A433D
[2018-06-02 17:13:01 520] UART Recv: @2[MOD3
MOD3
MOD3
C=]
494E54302E30350D
[2018-06-02 17:13:02 249] UART Send: [INT0.05
]
494E54302E30350D0A494E54302E30350D0A494E54302E30350D0A433D
[2018-06-02 17:13:02 406] UART Recv: @2[INT0.05
INT0.05
INT0.05
C=]
535450302E30320D
[2018-06-02 17:13:03 141] UART Send: [STP0.02
]
535450302E30320D0A535450302E30320D0A535450302E30320D0A433D
[2018-06-02 17:13:03 281] UART Recv: @2[STP0.02
STP0.02
STP0.02
C=]
535441300D
[2018-06-02 17:13:04 079] UART Send: [STA0
]
535441300D
[2018-06-02 17:13:04 219] UART Recv: @2[STA0
]
0A433D202020302E303030300D0A433D
[2018-06-02 17:13:17 640] UART Recv: @2[
C=   0.0000
C=]
53414E3135300D
[2018-06-02 17:13:22 566] UART Send: [SAN150
]
53414E3135300D
[2018-06-02 17:13:22 629] UART Recv: @2[SAN150
]
0A433D
[2018-06-02 17:13:23 775] UART Recv: @2[
C=]
534B4D32352033300D
[2018-06-02 17:13:24 822] UART Send: [SKM25 30
]
534B4D32352033300D
[2018-06-02 17:13:24 962] UART Recv: @2[SKM25 30
]
0A433D
[2018-06-02 17:13:29 684] UART Recv: @2[
C=]
524B4D0D
[2018-06-02 17:13:31 584] UART Send: [RKM
]
524B4D0D32342E39360D200D33302E30320D0A433D
[2018-06-02 17:13:31 663] UART Recv: @2[RKM
24.96

30.02
C=]

[2018-06-02 17:13:31 663] [Measure] totalcount=251
53484F0D
[2018-06-02 17:13:32 689] UART Send: [SHO
]
53484F0D0A433D
[2018-06-02 17:13:32 845] UART Recv: @2[SHO
C=]
535343350D
[2018-06-02 17:13:35 696] UART Send: [SSC5
]

[2018-06-02 17:13:35 696] CountDown start[0,42]
535343350D0A203135302E303030302020202020203131390D
[2018-06-02 17:13:35 837] UART Recv: @2[SSC5
 150.0000      119
]

[2018-06-02 17:13:35 837] [Measure] analyzecount=1recvcount=1
0A203135302E303230302020202020203132310D0A203135302E303430302020202020203131330D
[2018-06-02 17:13:35 962] UART Recv: @2[
 150.0200      121
 150.0400      113
]
[2018-06-02 17:15:09 249]Log Start******************************************************

[2018-06-02 17:15:10 031] [UserLogin] login succeed!user=administrator,pwd=123456

[2018-06-02 17:15:10 156] [DeviceInit] Init Start
2F0D
[2018-06-02 17:15:11 850] UART Send: [/
]
0D0A433D
[2018-06-02 17:15:11 990] UART Recv: @1[
C=]
5246460D
[2018-06-02 17:15:13 366] UART Send: [RFF
]
5246460D0A2B2B3130310D0A433D
[2018-06-02 17:15:13 505] UART Recv: @1[RFF
++101
C=]
524B4D0D
[2018-06-02 17:15:14 196] UART Send: [RKM
]
524B4D0D32342E39360D200D33302E30320D0A433D
[2018-06-02 17:15:14 336] UART Recv: @1[RKM
24.96

30.02
C=]

[2018-06-02 17:15:16 155] [DeviceInit] warmup check=False

[2018-06-02 17:15:16 155] [DeviceInit] warmup skip, GetDeviceZeroPoint
5041520D
[2018-06-02 17:15:17 138] UART Send: [PAR
]
5041520D0A4C574C33300D0A55504C37350D0A535045302E30320D0A535450302E30320D0A494E54302E30350D0A4D584E31300D0A4D5854310D0A4D5853302E3030350D0A4D4F44330D0A574156312E35343138340D0A54535A2034352E333530300D0A54445A2031392E333135300D0A0A433D
[2018-06-02 17:15:17 279] UART Recv: @1[PAR
LWL30
UPL75
SPE0.02
STP0.02
INT0.05
MXN10
MXT1
MXS0.005
MOD3
WAV1.54184
TSZ 45.3500
TDZ 19.3150

C=]
5041460D
[2018-06-02 17:15:18 031] UART Send: [PAF
]
5041460D
[2018-06-02 17:15:18 187] UART Recv: @1[PAF
]
0A5A54412D3030332E333634370D0A0A5A54422D3030312E313037390D0A0A5A54582D3035302E343033350D0A0A5A54592D3035302E383132350D0A0A5A545A2D3030352E303030300D0A0A5354503030302E303230300D0A0A494E543030312E303030300D0A0A535045303034380D0A0A433D
[2018-06-02 17:15:18 467] UART Recv: @1[
ZTA-003.3647

ZTB-001.1079

ZTX-050.4035

ZTY-050.8125

ZTZ-005.0000

STP000.0200

INT001.0000

SPE0048

C=]
534450310D
[2018-06-02 17:15:19 156] UART Send: [SDP1
]
534450310D
[2018-06-02 17:15:19 297] UART Recv: @1[SDP1
]
0A433D
[2018-06-02 17:15:19 441] UART Recv: @1[
C=]

[2018-06-02 17:15:19 442] [DeviceInit] Init Finish

[2018-06-02 17:15:21 282] [Parent] Menu Measure

[2018-06-02 17:15:21 412] [Measure] check 5 Axis=Unchecked

[2018-06-02 17:15:22 176] [Measure] ButtonStart

[2018-06-02 17:15:24 640] [Measure] Measure Start
2F0D
[2018-06-02 17:15:25 683] UART Send: [/
]
0D0A433D
[2018-06-02 17:15:25 761] UART Recv: @2[
C=]
4D4F44330D
[2018-06-02 17:15:26 495] UART Send: [MOD3
]
4D4F44330D0A4D4F44330D0A4D4F44330D0A433D
[2018-06-02 17:15:26 651] UART Recv: @2[MOD3
MOD3
MOD3
C=]
494E54302E30350D
[2018-06-02 17:15:27 323] UART Send: [INT0.05
]
494E54302E30350D0A494E54302E30350D0A494E54302E30350D0A433D
[2018-06-02 17:15:27 455] UART Recv: @2[INT0.05
INT0.05
INT0.05
C=]
535450302E30320D
[2018-06-02 17:15:28 120] UART Send: [STP0.02
]
535450302E30320D0A535450302E30320D0A535450302E30320D0A433D
[2018-06-02 17:15:28 261] UART Recv: @2[STP0.02
STP0.02
STP0.02
C=]
535441300D
[2018-06-02 17:15:28 951] UART Send: [STA0
]
535441300D0A433D202020302E303030300D0A433D
[2018-06-02 17:15:29 092] UART Recv: @2[STA0
C=   0.0000
C=]
53414E3135300D
[2018-06-02 17:15:29 780] UART Send: [SAN150
]
53414E3135300D
[2018-06-02 17:15:29 921] UART Recv: @2[SAN150
]
0A433D
[2018-06-02 17:15:31 187] UART Recv: @2[
C=]
534B4D32352033300D
[2018-06-02 17:15:32 535] UART Send: [SKM25 30
[...]
TSZ 45.3500
TDZ 19.3150

C=PAR
LWL30
UPL75
SPE0.02
STP0.02
INT0.05
MXN10
MXT1
MXS0.005
MOD3
WAV1.54184
TSZ 45.3500
TDZ 19.3150

C=[System.FormatException: Input string was not in a correct format.
   at System.Number.ParseDouble(String value, NumberStyles options, NumberFormatInfo numfmt)
   at System.Convert.ToDouble(String value)
   at DllLibrary.SDDDetector.RecvDeviceZeroPoint(Byte[] data, Double[]& zeropoint) in d:\PCTool\XRD_Tool\DllLibrary\SDDDetector.cs:line 154
   at XRD_Tool.MeasureApi.RecvGetDeviceZeroPoint(Byte[] data) in d:\PCTool\XRD_Tool\XRD_Tool\MeasureApi.cs:line 243]

[2018-06-02 21:59:28 463] [DeviceInit] Init Skip

[2018-06-02 21:59:29 791] [Parent] Menu Measure

[2018-06-02 21:59:29 853] [Measure] check 5 Axis=Unchecked
[2018-06-02 22:19:27 816]Log Start******************************************************

[2018-06-02 22:19:29 137] [UserLogin] login succeed!user=administrator,pwd=123456

[2018-06-02 22:19:29 271] [DeviceInit] Init Start
2F0D
[2018-06-02 22:19:29 276] UART Send: [/
]
0D0A433D
[2018-06-02 22:19:29 405] UART Recv: @1[
C=]
5246460D
[2018-06-02 22:19:29 408] UART Send: [RFF
]
5246460D0A2B2B3130310D0A433D
[2018-06-02 22:19:29 542] UART Recv: @1[RFF
++101
C=]
524B4D0D
[2018-06-02 22:19:29 544] UART Send: [RKM
]
524B4D0D32342E39360D200D33302E30320D0A433D
[2018-06-02 22:19:29 670] UART Recv: @1[RKM
24.96

30.02
C=]

[2018-06-02 22:19:30 700] [DeviceInit] warmup check=False

[2018-06-02 22:19:30 700] [DeviceInit] warmup skip, GetDeviceZeroPoint
5041520D
[2018-06-02 22:19:30 702] UART Send: [PAR
]
5041520D0A4C574C33300D0A55504C37350D0A535045302E30320D0A535450302E30320D0A494E54302E30350D0A4D584E31300D0A4D5854310D0A4D5853302E3030350D0A4D4F44330D0A574156312E35343138340D0A54535A2034352E333530300D0A54445A2031392E333135300D0A0A433D
[2018-06-02 22:19:30 836] UART Recv: @1[PAR
LWL30
UPL75
SPE0.02
STP0.02
INT0.05
MXN10
MXT1
MXS0.005
MOD3
WAV1.54184
TSZ 45.3500
TDZ 19.3150

C=]
5041460D
[2018-06-02 22:19:30 839] UART Send: [PAF
]
5041460D
[2018-06-02 22:19:30 963] UART Recv: @1[PAF
]
0A5A54412D3030332E333634370D0A0A5A54422D3030312E313037390D0A0A5A54582D3035302E343033350D0A0A5A54592D3035302E383132350D0A0A5A545A2D3030352E303030300D0A0A5354503030302E303230300D0A0A494E543030312E303030300D0A0A535045303034380D0A0A433D
[2018-06-02 22:19:31 250] UART Recv: @1[
ZTA-003.3647

ZTB-001.1079

ZTX-050.4035

ZTY-050.8125

ZTZ-005.0000

STP000.0200

INT001.0000

SPE0048

C=]
534450320D
[2018-06-02 22:19:31 253] UART Send: [SDP2
]
534450320D
[2018-06-02 22:19:31 377] UART Recv: @1[SDP2
]
0A433D
[2018-06-02 22:19:31 521] UART Recv: @1[
C=]
2D7265736574
[2018-06-02 22:19:31 542] TCP Send: [-reset]

[2018-06-02 22:19:31 583] Exception[System.ArgumentNullException: Value cannot be null.
Parameter name: value
   at System.BitConverter.ToInt32(Byte[] value, Int32 startIndex)
   at XRD_Tool.MeasureApi.RecvTCPCmdResultCheck(Byte[] cmd, Int32& code) in d:\PCTool\XRD_Tool\XRD_Tool\MeasureApi.cs:line 1130]
00000000
[2018-06-02 22:19:33 975] TCP Recv: []
2D73657474696E6773204372
[2018-06-02 22:19:33 976] TCP Send: [-settings Cr]
00000000
[2018-06-02 22:19:34 235] TCP Recv: []

[2018-06-02 22:19:34 236] [DeviceInit] Init Finish

[2018-06-02 22:20:23 303] [Parent] Menu Measure

[2018-06-02 22:20:23 418] [Measure] check 5 Axis=Unchecked

[2018-06-02 22:20:34 270] [Measure] Measure Methord changed3

[2018-06-02 22:20:34 270] [Measure] check 5 Axis=Unchecked

[2018-06-02 22:20:35 977] [Measure] Measure Methord changed2

[2018-06-02 22:20:35 977] [Measure] check 5 Axis=Unchecked

[2018-06-02 22:20:43 508] [Parent] closing
[2018-06-02 22:20:43 510]Log End******************************************************

File: LDA_sample_name_56789_Psi-0_20180603-104706.txt
150.0000      63
150.1200      63
150.2400     280
150.3600     259
150.4800      63
150.6000     271
150.7200     262
150.8400      63
150.9600     257
151.0800      63
151.2000     283
151.3200      63
151.4400      63
151.5600     261
151.6800      63
151.8000      63
151.9200     283
152.0400     272
152.1600     276
152.2800      63
152.4000      63
152.5200     271
152.6400      63
152.7600      63
152.8800      63
153.0000      63
153.1200     265
153.2400     259
153.3600     279
153.4800      63
153.6000     261
153.7200     260
153.8400      63
153.9600      63
154.0800     258
154.2000      63
154.3200      63
154.4400      63
154.5600      63
154.6800     288
154.8000      63
154.9200     259
155.0400     261
155.1600      63
155.2800     290
155.4000     256
155.5200     268
155.6400     290
155.7600     277
155.8800     279
156.0000      63
156.1200     272
156.2400      63
156.3600     257
156.4800     272
156.6000      63
156.7200     295
156.8400     263
156.9600     271
157.0800     290
157.2000     266
157.3200     281
157.4400     268
157.5600     261
157.6800     269
157.8000      63
157.9200     293
158.0400     277
158.1600     277
158.2800     296
158.4000     282
158.5200     256
158.6400      63
158.7600     258
158.8800     298
159.0000     286
159.1200     271
159.2400     271
159.3600     279
159.4800     268
159.6000      63
159.7200     278
159.8400     259
159.9600     283
160.0800     277
160.2000     273
160.3200     292
160.4400     299
160.5600     298
160.6800     266
160.8000     277
160.9200     269
161.0400     287
161.1600     291
161.2800     314
161.4000     277
161.5200     297
161.6400     306
161.7600     312
161.8800     288
162.0000     293
162.1200     299
162.2400     258
162.3600     319
162.4800     304
162.6000     298
162.7200     323
162.8400     309
162.9600     308
163.0800     315
163.2000     305
163.3200     327
163.4400     317
163.5600     329
163.6800     344
163.8000     311
163.9200     337
164.0400     317
164.1600     338
164.2800     369
164.4000     316
164.5200     368
164.6400     339
164.7600     370
164.8800     319
165.0000     340
165.1200     319
165.2400     319
165.3600     319
165.4800     319
165.6000     319
165.7200     521
165.8400     539
165.9600     568
166.0800     600
166.2000     635
166.3200     575
166.4400     634
166.5600     575
166.6800     575
166.8000     575
166.9200     575
167.0400     575
167.1600     575
167.2800     575
167.4000     797
167.5200     775
167.6400     788
167.7600     575
167.8800     788
168.0000     575
168.1200     575
168.2400     575
168.3600     627
168.4800     608
168.6000     634
168.7200     571
168.8400     554
168.9600     554
169.0800     536
169.2000     319
169.3200     319
169.4400     319
169.5600     319
169.6800     319
169.8000     319
169.9200     319
170.0400     319
170.1600     319
170.2800     376
170.4000     364
170.5200     372
170.6400     319
170.7600     362
170.8800     353
171.0000     364
171.1200     363
171.2400     347
171.3600     326
171.4800     301
171.6000     287
171.7200     299
171.8400     337
171.9600     296
172.0800     319
172.2000     283
172.3200     304
172.4400     280
172.5600     321
172.6800     285
172.8000     307
172.9200     301
173.0400     321
173.1600     273
173.2800     303
173.4000     287
173.5200     284
173.6400     277
173.7600     269
173.8800     293
174.0000     271
174.1200      63
174.2400     308
174.3600     287
174.4800     286
174.6000     297
174.7200     258
174.8400      63
174.9600     305
175.0800      63
175.2000     272
175.3200     272
175.4400     257
175.5600      63

File: LDA_sample_name_56789_Psi-0_20180603-111606.txt
137.2000     220
137.3200     248
137.4400     243
137.5600     252
137.6800     249
137.8000     265
137.9200     237
138.0400     292
138.1600     276
138.2800     251
138.4000     280
138.5200     256
138.6400     240
138.7600     287
138.8800     273
139.0000     273
139.1200     273
139.2400     231
139.3600     233
139.4800     225
139.6000     259
139.7200     268
139.8400     248
139.9600     295
140.0800     258
140.2000     284
140.3200     246
140.4400     275
140.5600     295
140.6800     231
140.8000     253
140.9200     260
141.0400     263
141.1600     280
141.2800     277
141.4000     263
141.5200     265
141.6400     245
141.7600     264
141.8800     259
142.0000     299
142.1200     276
142.2400     297
142.3600     261
142.4800     254
142.6000     279
142.7200     276
142.8400     240
142.9600     249
143.0800     268
143.2000     267
143.3200     274
143.4400     234
143.5600     267
143.6800     284
143.8000     268
143.9200     269
144.0400     286
144.1600     301
144.2800     263
144.4000     273
144.5200     244
144.6400     307
144.7600     247
144.8800     278
145.0000     291
145.1200     262
145.2400     262
145.3600     261
145.4800     283
145.6000     246
145.7200     277
145.8400     255
145.9600     252
146.0800     289
146.2000     289
146.3200     271
146.4400     265
146.5600     250
146.6800     285
146.8000     277
146.9200     282
147.0400     296
147.1600     283
147.2800     277
147.4000     256
147.5200     286
147.6400     291
147.7600     291
147.8800     294
148.0000     278
148.1200     273
148.2400     319
148.3600     300
148.4800     284
148.6000     260
148.7200     307
148.8400     305
148.9600     302
149.0800     294
149.2000     279
149.3200     319
149.4400     308
149.5600     290
149.6800     295
149.8000     311
149.9200     294
150.0400     305
150.1600     303
150.2800     301
150.4000     295
150.5200     313
150.6400     324
150.7600     323
150.8800     343
151.0000     322
151.1200     306
151.2400     318
151.3600     386
151.4800     359
151.6000     312
151.7200     355
151.8400     378
151.9600     359
152.0800     408
152.2000     383
152.3200     472
152.4400     382
152.5600     443
152.6800     467
152.8000     465
152.9200     492
153.0400     560
153.1600     517
153.2800     597
153.4000     639
153.5200     611
153.6400     670
153.7600     682
153.8800     722
154.0000     712
154.1200     734
154.2400     766
154.3600     773
154.4800     771
154.6000     774
154.7200     743
154.8400     729
154.9600     772
155.0800     753
155.2000     678
155.3200     674
155.4400     673
155.5600     630
155.6800     606
155.8000     634
155.9200     573
156.0400     563
156.1600     558
156.2800     501
156.4000     467
156.5200     528
156.6400     478
156.7600     431
156.8800     403
157.0000     416
157.1200     377
157.2400     394
157.3600     388
157.4800     380
157.6000     358
157.7200     414
157.8400     334
157.9600     385
158.0800     364
158.2000     345
158.3200     360
158.4400     320
158.5600     335
158.6800     295
158.8000     326
158.9200     322
159.0400     340
159.1600     316
159.2800     312
159.4000     338
159.5200     323
159.6400     301
159.7600     311
159.8800     299
160.0000     312
160.1200     266
160.2400     275
160.3600     316
160.4800     264
160.6000     266
160.7200     319
160.8400     283
160.9600     286
161.0800     303
161.2000     287
161.3200     277
161.4400     278
161.5600     255
161.6800     271
161.8000     278
161.9200     274
162.0400     289
162.1600     253
162.2800     261
162.4000     266
162.5200     309
162.6400     281
162.7600     260

File: LDA_sample_name_56789_Psi-0_20180603-112230.txt
137.2000     242
137.3200     247
137.4400     271
137.5600     280
137.6800     239
137.8000     285
137.9200     244
138.0400     282
138.1600     220
138.2800     255
138.4000     237
138.5200     277
138.6400     248
138.7600     246
138.8800     280
139.0000     238
139.1200     302
139.2400     290
139.3600     266
139.4800     279
139.6000     250
139.7200     250
139.8400     241
139.9600     236
140.0800     248
140.2000     264
140.3200     262
140.4400     256
140.5600     260
140.6800     255
140.8000     278
140.9200     273
141.0400     265
141.1600     252
141.2800     264
141.4000     253
141.5200     267
141.6400     238
141.7600     238
141.8800     268
142.0000     268
142.1200     247
142.2400     268
142.3600     287
142.4800     301
142.6000     260
142.7200     249
142.8400     258
142.9600     249
143.0800     268
143.2000     256
143.3200     247
143.4400     244
143.5600     271
143.6800     252
143.8000     289
143.9200     247
144.0400     263
144.1600     272
144.2800     277
144.4000     270
144.5200     269
144.6400     263
144.7600     274
144.8800     266
145.0000     291
145.1200     242
145.2400     275
145.3600     278
145.4800     263
145.6000     319
145.7200     268
145.8400     275
145.9600     268
146.0800     267
146.2000     284
146.3200     280
146.4400     259
146.5600     288
146.6800     263
146.8000     287
146.9200     281
147.0400     272
147.1600     254
147.2800     275
147.4000     266
147.5200     296
147.6400     294
147.7600     305
147.8800     286
148.0000     290
148.1200     286
148.2400     265
148.3600     329
148.4800     324
148.6000     274
148.7200     289
148.8400     281
148.9600     277
149.0800     301
149.2000     280
149.3200     300
149.4400     291
149.5600     299
149.6800     311
149.8000     278
149.9200     326
150.0400     336
150.1600     312
150.2800     303
150.4000     292
150.5200     312
150.6400     318
150.7600     293
150.8800     325
151.0000     304
151.1200     333
151.2400     352
151.3600     349
151.4800     349
151.6000     332
151.7200     327
151.8400     381
151.9600     337
152.0800     358
152.2000     354
152.3200     381
152.4400     419
152.5600     453
152.6800     474
152.8000     497
152.9200     521
153.0400     553
153.1600     528
153.2800     530
153.4000     629
153.5200     571
153.6400     653
153.7600     731
153.8800     694
154.0000     654
154.1200     752
154.2400     718
154.3600     738
154.4800     712
154.6000     814
154.7200     742
154.8400     740
154.9600     758
155.0800     741
155.2000     667
155.3200     715
155.4400     627
155.5600     606
155.6800     548
155.8000     607
155.9200     647
156.0400     604
156.1600     529
156.2800     539
156.4000     458
156.5200     453
156.6400     443
156.7600     472
156.8800     398
157.0000     430
157.1200     433
157.2400     410
157.3600     397
157.4800     399
157.6000     381
157.7200     375
157.8400     375
157.9600     322
158.0800     381
158.2000     355
158.3200     316
158.4400     326
158.5600     342
158.6800     332
158.8000     309
158.9200     328
159.0400     304
159.1600     312
159.2800     318
159.4000     290
159.5200     319
159.6400     266
159.7600     290
159.8800     314
160.0000     289
160.1200     300
160.2400     316
160.3600     249
160.4800     250
160.6000     278
160.7200     270
160.8400     303
160.9600     266
161.0800     337
161.2000     287
161.3200     269
161.4400     261
161.5600     291
161.6800     274
161.8000     275
161.9200     268
162.0400     255
162.1600     295
162.2800     240
162.4000     248
162.5200     298
162.6400     250
162.7600     275

File: LDA_sample_name_56789_Psi-0_20180603-112316.txt
137.2000     251
137.3200     255
137.4400     276
137.5600     242
137.6800     269
137.8000     255
137.9200     263
138.0400     258
138.1600     245
138.2800     232
138.4000     264
138.5200     255
138.6400     261
138.7600     257
138.8800     276
139.0000     251
139.1200     253
139.2400     246
139.3600     237
139.4800     233
139.6000     247
139.7200     247
139.8400     262
139.9600     249
140.0800     260
140.2000     252
140.3200     254
140.4400     260
140.5600     241
140.6800     263
140.8000     238
140.9200     255
141.0400     248
141.1600     235
141.2800     264
141.4000     256
141.5200     253
141.6400     272
141.7600     273
141.8800     271
142.0000     274
142.1200     259
142.2400     249
142.3600     240
142.4800     252
142.6000     279
142.7200     262
142.8400     257
142.9600     276
143.0800     278
143.2000     270
143.3200     277
143.4400     285
143.5600     258
143.6800     289
143.8000     251
143.9200     256
144.0400     240
144.1600     280
144.2800     283
144.4000     249
144.5200     297
144.6400     252
144.7600     286
144.8800     245
145.0000     275
145.1200     299
145.2400     271
145.3600     252
145.4800     250
145.6000     289
145.7200     297
145.8400     256
145.9600     285
146.0800     259
146.2000     250
146.3200     277
146.4400     288
146.5600     272
146.6800     243
146.8000     252
146.9200     301
147.0400     276
147.1600     260
147.2800     280
147.4000     260
147.5200     295
147.6400     243
147.7600     325
147.8800     296
148.0000     278
148.1200     251
148.2400     289
148.3600     289
148.4800     290
148.6000     251
148.7200     315
148.8400     290
148.9600     282
149.0800     302
149.2000     272
149.3200     282
149.4400     288
149.5600     273
149.6800     314
149.8000     329
149.9200     273
150.0400     320
150.1600     305
150.2800     311
150.4000     312
150.5200     334
150.6400     321
150.7600     307
150.8800     311
151.0000     326
151.1200     322
151.2400     347
151.3600     388
151.4800     376
151.6000     340
151.7200     362
151.8400     374
151.9600     400
152.0800     398
152.2000     393
152.3200     398
152.4400     430
152.5600     433
152.6800     486
152.8000     467
152.9200     501
153.0400     536
153.1600     571
153.2800     581
153.4000     598
153.5200     562
153.6400     635
153.7600     682
153.8800     730
154.0000     669
154.1200     737
154.2400     769
154.3600     752
154.4800     753
154.6000     777
154.7200     813
154.8400     758
154.9600     774
155.0800     722
155.2000     676
155.3200     676
155.4400     652
155.5600     610
155.6800     601
155.8000     614
155.9200     600
156.0400     523
156.1600     510
156.2800     484
156.4000     478
156.5200     502
156.6400     471
156.7600     404
156.8800     394
157.0000     424
157.1200     391
157.2400     393
157.3600     390
157.4800     375
157.6000     402
157.7200     363
157.8400     397
157.9600     369
158.0800     339
158.2000     357
158.3200     373
158.4400     357
158.5600     362
158.6800     325
158.8000     281
158.9200     353
159.0400     313
159.1600     312
159.2800     299
159.4000     316
159.5200     289
159.6400     281
159.7600     312
159.8800     294
160.0000     263
160.1200     301
160.2400     299
160.3600     271
160.4800     263
160.6000     279
160.7200     280
160.8400     276
160.9600     290
161.0800     275
161.2000     273
161.3200     282
161.4400     256
161.5600     288
161.6800     286
161.8000     272
161.9200     293
162.0400     235
162.1600     264
162.2800     283
162.4000     263
162.5200     274
162.6400     274
162.7600     226