Folder: xrd/XRD_Tool/XRD_Tool/bin/Debug (part 29)

File: SDD_sample_name_01234_Psi-45_20180602-173942.txt
 150.0000       80
 150.0200       96
 150.0400       81
 150.0600      113
 150.0800       86
 150.1000       85
 150.1200       90
 150.1400       68
 150.1600      107
 150.1800      100
 150.2000      100
 150.2200       95
 150.2400       96
 150.2600       90
 150.2800      114
 150.3000       96
 150.3200       81
 150.3400      114
 150.3600       92
 150.3800      105
 150.4000      102
 150.4200      101
 150.4400       88
 150.4600      100
 150.4800       89
 150.5000      104
 150.5200       92
 150.5400      113
 150.5600      106
 150.5800      101
 150.6000      106
 150.6200      100
 150.6400      111
 150.6600      122
 150.6800       99
 150.7000      117
 150.7200      115
 150.7400      103
 150.7600      124
 150.7800      112
 150.8000      104
 150.8200      107
 150.8400       99
 150.8600      104
 150.8800       97
 150.9000      104
 150.9200      116
 150.9400      137
 150.9600      108
 150.9800      113
 151.0000      130
 151.0200      120
 151.0400      109
 151.0600      131
 151.0800      134
 151.1000      124
 151.1200      136
 151.1400      107
 151.1600      112
 151.1800       90
 151.2000      106
 151.2200      125
 151.2400      114
 151.2600      125
 151.2800      147
 151.3000      134
 151.3200      134
 151.3400      137
 151.3600      129
 151.3800      131
 151.4000      144
 151.4200      113
 151.4400      144
 151.4600      141
 151.4800      118
 151.5000      155
 151.5200      145
 151.5400      117
 151.5600      130
 151.5800      135
 151.6000      139
 151.6200      145
 151.6400      140
 151.6600      140
 151.6800      140
 151.7000      132
 151.7200      143
 151.7400      134
 151.7600      151
 151.7800      150
 151.8000      131
 151.8200      141
 151.8400      147
 151.8600      156
 151.8800      122
 151.9000      149
 151.9200      168
 151.9400      135
 151.9600      156
 151.9800      138
 152.0000      149
 152.0200      149
 152.0400      160
 152.0600      152
 152.0800      147
 152.1000      153
 152.1200      155
 152.1400      167
 152.1600      150
 152.1800      161
 152.2000      168
 152.2200      170
 152.2400      154
 152.2600      167
 152.2800      170
 152.3000      183
 152.3200      163
 152.3400      152
 152.3600      200
 152.3800      191
 152.4000      167
 152.4200      178
 152.4400      184
 152.4600      196
 152.4800      191
 152.5000      190
 152.5200      172
 152.5400      168
 152.5600      165
 152.5800      171
 152.6000      220
 152.6200      211
 152.6400      187
 152.6600      178
 152.6800      201
 152.7000      179
 152.7200      200
 152.7400      178
 152.7600      176
 152.7800      212
 152.8000      195
 152.8200      204
 152.8400      206
 152.8600      188
 152.8800      209
 152.9000      211
 152.9200      229
 152.9400      217
 152.9600      206
 152.9800      207
 153.0000      197
 153.0200      220
 153.0400      228
 153.0600      221
 153.0800      208
 153.1000      232
 153.1200      210
 153.1400      230
 153.1600      214
 153.1800      252
 153.2000      214
 153.2200      223
 153.2400      209
 153.2600      251
 153.2800      252
 153.3000      234
 153.3200      237
 153.3400      251
 153.3600      220
 153.3800      250
 153.4000      241
 153.4200      242
 153.4400      261
 153.4600      222
 153.4800      226
 153.5000      238
 153.5200      278
 153.5400      262
 153.5600      264
 153.5800      267
 153.6000      234
 153.6200      244
 153.6400      265
 153.6600      277
 153.6800      285
 153.7000      271
 153.7200      277
 153.7400      263
 153.7600      269
 153.7800      284
 153.8000      290
 153.8200      268
 153.8400      272
 153.8600      270
 153.8800      279
 153.9000      286
 153.9200      283
 153.9400      302
 153.9600      298
 153.9800      325
 154.0000      321
 154.0200      285
 154.0400      284
 154.0600      282
 154.0800      331
 154.1000      314
 154.1200      291
 154.1400      313
 154.1600      321
 154.1800      309
 154.2000      320
 154.2200      303
 154.2400      322
 154.2600      294
 154.2800      305
 154.3000      338
 154.3200      335
 154.3400      331
 154.3600      303
 154.3800      307
 154.4000      339
 154.4200      305
 154.4400      337
 154.4600      324
 154.4800      322
 154.5000      331
 154.5200      283
 154.5400      306
 154.5600      335
 154.5800      350
 154.6000      350
 154.6200      344
 154.6400      357
 154.6600      346
 154.6800      370
 154.7000      362
 154.7200      347
 154.7400      344
 154.7600      369
 154.7800      336
 154.8000      359
 154.8200      355
 154.8400      365
 154.8600      337
 154.8800      354
 154.9000      362
 154.9200      361
 154.9400      351
 154.9600      337
 154.9800      334
 155.0000      343