Folder: xrd/XRD_Tool/XRD_Tool/bin/Debug (part 24)

File: SDD_sample_name_01234_Psi-15_20180602-151515.txt
 145.0000       35
 145.0400       42
 145.0800       41
 145.1200       42
 145.1600       40
 145.2000       30
 145.2400       37
 145.2800       46
 145.3200       31
 145.3600       37
 145.4000       32
 145.4400       54
 145.4800       44
 145.5200       34
 145.5600       33
 145.6000       35
 145.6400       31
 145.6800       31
 145.7200       39
 145.7600       49
 145.8000       39
 145.8400       36
 145.8800       40
 145.9200       33
 145.9600       47
 146.0000       42
 146.0400       45
 146.0800       33
 146.1200       37
 146.1600       31
 146.2000       38
 146.2400       47
 146.2800       35
 146.3200       35
 146.3600       40
 146.4000       28
 146.4400       51
 146.4800       33
 146.5200       48
 146.5600       36
 146.6000       40
 146.6400       41
 146.6800       48
 146.7200       34
 146.7600       39
 146.8000       35
 146.8400       42
 146.8800       34
 146.9200       40
 146.9600       40
 147.0000       38
 147.0400       41
 147.0800       38
 147.1200       40
 147.1600       41
 147.2000       41
 147.2400       43
 147.2800       39
 147.3200       41
 147.3600       47
 147.4000       43
 147.4400       27
 147.4800       45
 147.5200       45
 147.5600       37
 147.6000       44
 147.6400       34
 147.6800       43
 147.7200       42
 147.7600       65
 147.8000       42
 147.8400       47
 147.8800       52
 147.9200       46
 147.9600       41
 148.0000       43
 148.0400       44
 148.0800       39
 148.1200       39
 148.1600       42
 148.2000       43
 148.2400       43
 148.2800       46
 148.3200       35
 148.3600       37
 148.4000       39
 148.4400       34
 148.4800       45
 148.5200       49
 148.5600       45
 148.6000       48
 148.6400       44
 148.6800       41
 148.7200       52
 148.7600       34
 148.8000       38
 148.8400       57
 148.8800       50
 148.9200       55
 148.9600       44
 149.0000       56
 149.0400       56
 149.0800       53
 149.1200       44
 149.1600       47
 149.2000       36
 149.2400       43
 149.2800       61
 149.3200       42
 149.3600       58
 149.4000       44
 149.4400       50
 149.4800       40
 149.5200       51
 149.5600       52
 149.6000       80
 149.6400       50
 149.6800       54
 149.7200       53
 149.7600       63
 149.8000       51
 149.8400       41
 149.8800       49
 149.9200       59
 149.9600       67
 150.0000       58
 150.0400       49
 150.0800       54
 150.1200       70
 150.1600       51
 150.2000       39
 150.2400       63
 150.2800       54
 150.3200       49
 150.3600       54
 150.4000       52
 150.4400       58
 150.4800       53
 150.5200       51
 150.5600       64
 150.6000       53
 150.6400       63
 150.6800       70
 150.7200       63
 150.7600       66
 150.8000       70
 150.8400       61
 150.8800       61
 150.9200       71
 150.9600       59
 151.0000       75
 151.0400       67
 151.0800       66
 151.1200       81
 151.1600       93
 151.2000       78
 151.2400       71
 151.2800       89
 151.3200       70
 151.3600       82
 151.4000       93
 151.4400       75
 151.4800       73
 151.5200       88
 151.5600       70
 151.6000       72
 151.6400       87
 151.6800       92
 151.7200       83
 151.7600       87
 151.8000      100
 151.8400       98
 151.8800      105
 151.9200       97
 151.9600      103
 152.0000       99
 152.0400       89
 152.0800      111
 152.1200      118
 152.1600      103
 152.2000      113
 152.2400      119
 152.2800      121
 152.3200      133
 152.3600      123
 152.4000      107
 152.4400      141
 152.4800      123
 152.5200      107
 152.5600      157
 152.6000      144
 152.6400      145
 152.6800      168
 152.7200      199
 152.7600      158
 152.8000      163
 152.8400      158
 152.8800      184
 152.9200      179
 152.9600      169
 153.0000      208
 153.0400      186
 153.0800      223
 153.1200      195
 153.1600      203
 153.2000      205
 153.2400      233
 153.2800      252
 153.3200      230
 153.3600      240
 153.4000      252
 153.4400      256
 153.4800      257
 153.5200      298
 153.5600      302
 153.6000      277
 153.6400      277
 153.6800      274
 153.7200      319
 153.7600      358
 153.8000      319
 153.8400      340
 153.8800      349
 153.9200      334
 153.9600      349
 154.0000      383
 154.0400      399
 154.0800      395
 154.1200      386
 154.1600      372
 154.2000      404
 154.2400      433
 154.2800      406
 154.3200      412
 154.3600      430
 154.4000      414
 154.4400      440
 154.4800      509
 154.5200      435
 154.5600      464
 154.6000      468
 154.6400      430
 154.6800      480
 154.7200      483
 154.7600      436
 154.8000      444
 154.8400      432
 154.8800      466
 154.9200      453
 154.9600      464
 155.0000      435

File: SDD_sample_name_01234_Psi-15_20180602-152502.txt
 145.0000       43
 145.0400       29
 145.0800       39
 145.1200       40
 145.1600       37
 145.2000       35
 145.2400       42
 145.2800       42
 145.3200       38
 145.3600       40
 145.4000       40
 145.4400       36
 145.4800       37
 145.5200       29
 145.5600       38
 145.6000       36
 145.6400       40
 145.6800       36
 145.7200       39
 145.7600       41
 145.8000       33
 145.8400       33
 145.8800       38
 145.9200       36
 145.9600       50
 146.0000       37
 146.0400       56
 146.0800       29
 146.1200       35
 146.1600       33
 146.2000       37
 146.2400       30
 146.2800       36
 146.3200       40
 146.3600       34
 146.4000       45
 146.4400       37
 146.4800       31
 146.5200       37
 146.5600       49
 146.6000       42
 146.6400       39
 146.6800       42
 146.7200       47
 146.7600       45
 146.8000       34
 146.8400       35
 146.8800       57
 146.9200       51
 146.9600       45
 147.0000       42
 147.0400       44
 147.0800       42
 147.1200       53
 147.1600       45
 147.2000       41
 147.2400       33
 147.2800       39
 147.3200       37
 147.3600       33
 147.4000       48
 147.4400       34
 147.4800       36
 147.5200       36
 147.5600       38
 147.6000       38
 147.6400       41
 147.6800       36
 147.7200       35
 147.7600       58
 147.8000       43
 147.8400       50
 147.8800       52
 147.9200       31
 147.9600       48
 148.0000       48
 148.0400       48
 148.0800       31
 148.1200       34
 148.1600       43
 148.2000       29
 148.2400       45
 148.2800       46
 148.3200       45
 148.3600       43
 148.4000       44
 148.4400       51
 148.4800       49
 148.5200       50
 148.5600       49
 148.6000       42
 148.6400       54
 148.6800       53
 148.7200       39
 148.7600       34
 148.8000       49
 148.8400       38
 148.8800       41
 148.9200       41
 148.9600       44
 149.0000       47
 149.0400       50
 149.0800       45
 149.1200       42
 149.1600       47
 149.2000       58
 149.2400       48
 149.2800       52
 149.3200       53
 149.3600       52
 149.4000       51
 149.4400       51
 149.4800       61
 149.5200       41
 149.5600       46
 149.6000       48
 149.6400       58
 149.6800       53
 149.7200       41
 149.7600       47
 149.8000       52
 149.8400       58
 149.8800       65
 149.9200       50
 149.9600       63
 150.0000       60
 150.0400       57
 150.0800       45
 150.1200       51
 150.1600       66
 150.2000       54
 150.2400       48
 150.2800       62
 150.3200       55
 150.3600       60
 150.4000       62
 150.4400       58
 150.4800       73
 150.5200       49
 150.5600       60
 150.6000       61
 150.6400       67
 150.6800       58
 150.7200       62
 150.7600       76
 150.8000       51
 150.8400       62
 150.8800       56
 150.9200       72
 150.9600       87
 151.0000       75
 151.0400       51
 151.0800       66
 151.1200       76
 151.1600       73
 151.2000       84
 151.2400       73
 151.2800       77
 151.3200       77
 151.3600       92
 151.4000       77
 151.4400       76
 151.4800       85
 151.5200       93
 151.5600      100
 151.6000       84
 151.6400       98
 151.6800      103
 151.7200       89
 151.7600       95
 151.8000      119
 151.8400       94
 151.8800       96
 151.9200      100
 151.9600      104
 152.0000      109
 152.0400      102
 152.0800      104
 152.1200      124
 152.1600       94
 152.2000      118
 152.2400       98
 152.2800      133
 152.3200      122
 152.3600      118
 152.4000      139
 152.4400      110
 152.4800      135
 152.5200      150
 152.5600      132
 152.6000      143
 152.6400      152
 152.6800      160
 152.7200      150
 152.7600      185
 152.8000      176
 152.8400      148
 152.8800      202
 152.9200      186
 152.9600      196
 153.0000      173
 153.0400      227
 153.0800      201
 153.1200      187
 153.1600      192
 153.2000      194
 153.2400      238
 153.2800      259
 153.3200      246
 153.3600      265
 153.4000      222
 153.4400      268
 153.4800      265
 153.5200      280
 153.5600      248
 153.6000      311
 153.6400      326
 153.6800      296
 153.7200      306
 153.7600      336
 153.8000      330
 153.8400      373
 153.8800      319
 153.9200      345
 153.9600      358
 154.0000      375
 154.0400      365
 154.0800      396
 154.1200      396
 154.1600      396
 154.2000      414
 154.2400      429
 154.2800      472
 154.3200      410
 154.3600      381
 154.4000      448
 154.4400      419
 154.4800      445
 154.5200      446
 154.5600      436
 154.6000      451
 154.6400      456
 154.6800      481
 154.7200      500
 154.7600      457
 154.8000      416
 154.8400      462
 154.8800      474
 154.9200      445
 154.9600      464
 155.0000      452

File: SDD_sample_name_01234_Psi-15_20180602-171627.txt
 150.0000      109
 150.0200      126
 150.0400      140
 150.0600      108
 150.0800      133
 150.1000      124
 150.1200      123
 150.1400      123
 150.1600      125
 150.1800      110
 150.2000      127
 150.2200      118
 150.2400      134
 150.2600      120
 150.2800      141
 150.3000      134
 150.3200      127
 150.3400      115
 150.3600      122
 150.3800      146
 150.4000      126
 150.4200      154
 150.4400      119
 150.4600      132
 150.4800      117
 150.5000      126
 150.5200      135
 150.5400      151
 150.5600      138
 150.5800      134
 150.6000      156
 150.6200      126
 150.6400      147
 150.6600      161
 150.6800      137
 150.7000      159
 150.7200      152
 150.7400      161
 150.7600      158
 150.7800      116
 150.8000      159
 150.8200      146
 150.8400      135
 150.8600      152
 150.8800      169
 150.9000      166
 150.9200      168
 150.9400      184
 150.9600      145
 150.9800      159
 151.0000      150
 151.0200      176
 151.0400      170
 151.0600      184
 151.0800      160
 151.1000      175
 151.1200      151
 151.1400      161
 151.1600      168
 151.1800      160
 151.2000      173
 151.2200      170
 151.2400      159
 151.2600      158
 151.2800      201
 151.3000      187
 151.3200      171
 151.3400      186
 151.3600      185
 151.3800      185
 151.4000      196
 151.4200      193
 151.4400      188
 151.4600      179
 151.4800      193
 151.5000      197
 151.5200      212
 151.5400      183
 151.5600      200
 151.5800      202
 151.6000      176
 151.6200      201
 151.6400      189
 151.6600      192
 151.6800      248
 151.7000      196
 151.7200      200
 151.7400      237
 151.7600      211
 151.7800      197
 151.8000      194
 151.8200      203
 151.8400      207
 151.8600      199
 151.8800      210
 151.9000      206
 151.9200      179
 151.9400      205
 151.9600      238
 151.9800      233
 152.0000      225
 152.0200      241
 152.0400      193
 152.0600      229
 152.0800      239
 152.1000      243
 152.1200      236
 152.1400      239
 152.1600      226
 152.1800      240
 152.2000      252
 152.2200      225
 152.2400      262
 152.2600      260
 152.2800      266
 152.3000      240
 152.3200      257
 152.3400      266
 152.3600      251
 152.3800      255
 152.4000      242
 152.4200      274
 152.4400      268
 152.4600      269
 152.4800      276
 152.5000      251
 152.5200      276
 152.5400      285
 152.5600      290
 152.5800      266
 152.6000      269
 152.6200      320
 152.6400      308
 152.6600      293
 152.6800      275
 152.7000      299
 152.7200      279
 152.7400      283
 152.7600      290
 152.7800      296
 152.8000      314
 152.8200      304
 152.8400      303
 152.8600      317
 152.8800      293
 152.9000      323
 152.9200      316
 152.9400      331
 152.9600      319
 152.9800      342
 153.0000      330
 153.0200      343
 153.0400      337
 153.0600      342
 153.0800      342
 153.1000      346
 153.1200      341
 153.1400      339
 153.1600      367
 153.1800      331
 153.2000      351
 153.2200      362
 153.2400      354
 153.2600      363
 153.2800      355
 153.3000      359
 153.3200      374
 153.3400      355
 153.3600      366
 153.3800      343
 153.4000      382
 153.4200      373
 153.4400      344
 153.4600      358
 153.4800      382
 153.5000      354
 153.5200      367
 153.5400      401
 153.5600      365
 153.5800      403
 153.6000      398
 153.6200      375
 153.6400      422
 153.6600      386
 153.6800      387
 153.7000      397
 153.7200      387
 153.7400      398
 153.7600      374
 153.7800      404
 153.8000      426
 153.8200      436
 153.8400      402
 153.8600      422
 153.8800      416
 153.9000      440
 153.9200      406
 153.9400      416
 153.9600      386
 153.9800      368
 154.0000      428
 154.0200      417
 154.0400      411
 154.0600      384
 154.0800      424
 154.1000      443
 154.1200      416
 154.1400      432
 154.1600      420
 154.1800      398
 154.2000      421
 154.2200      453
 154.2400      448
 154.2600      469
 154.2800      437
 154.3000      420
 154.3200      417
 154.3400      428
 154.3600      454
 154.3800      446
 154.4000      441
 154.4200      474
 154.4400      442
 154.4600      451
 154.4800      441
 154.5000      476
 154.5200      438
 154.5400      429
 154.5600      456
 154.5800      447
 154.6000      464
 154.6200      455
 154.6400      511
 154.6600      443
 154.6800      464
 154.7000      441
 154.7200      452
 154.7400      451
 154.7600      469
 154.7800      417
 154.8000      471
 154.8200      484
 154.8400      432
 154.8600      456
 154.8800      450
 154.9000      480
 154.9200      445
 154.9400      462
 154.9600      450
 154.9800      444
 155.0000      471

File: SDD_sample_name_01234_Psi-15_20180602-173038.txt
 150.0000      131
 150.0200      108
 150.0400      137
 150.0600      128
 150.0800      131
 150.1000      117
 150.1200      123
 150.1400      122
 150.1600      120
 150.1800      138
 150.2000      113
 150.2200      114
 150.2400      137
 150.2600      125
 150.2800      151
 150.3000      132
 150.3200      141
 150.3400      133
 150.3600      121
 150.3800      139
 150.4000      145
 150.4200      119
 150.4400      150
 150.4600      129
 150.4800      145
 150.5000      131
 150.5200      136
 150.5400      133
 150.5600      141
 150.5800      136
 150.6000      129
 150.6200      154
 150.6400      150
 150.6600      141
 150.6800      153
 150.7000      159
 150.7200      152
 150.7400      163
 150.7600      178
 150.7800      145
 150.8000      161
 150.8200      136
 150.8400      141
 150.8600      144
 150.8800      145
 150.9000      169
 150.9200      156
 150.9400      150
 150.9600      153
 150.9800      183
 151.0000      140
 151.0200      177
 151.0400      139
 151.0600      156
 151.0800      167
 151.1000      166
 151.1200      191
 151.1400      187
 151.1600      158
 151.1800      162
 151.2000      165
 151.2200      170
 151.2400      171
 151.2600      205
 151.2800      199
 151.3000      179
 151.3200      180
 151.3400      203
 151.3600      181
 151.3800      164
 151.4000      179
 151.4200      189
 151.4400      185
 151.4600      197
 151.4800      198
 151.5000      177
 151.5200      217
 151.5400      190
 151.5600      196
 151.5800      204
 151.6000      202
 151.6200      209
 151.6400      188
 151.6600      224
 151.6800      180
 151.7000      211
 151.7200      199
 151.7400      214
 151.7600      217
 151.7800      244
 151.8000      215
 151.8200      232
 151.8400      260
 151.8600      178
 151.8800      227
 151.9000      205
 151.9200      207
 151.9400      264
 151.9600      222
 151.9800      238
 152.0000      236
 152.0200      234
 152.0400      227
 152.0600      213
 152.0800      275
 152.1000      255
 152.1200      223
 152.1400      234
 152.1600      236
 152.1800      245
 152.2000      250
 152.2200      254
 152.2400      258
 152.2600      261
 152.2800      240
 152.3000      287
 152.3200      252
 152.3400      245
 152.3600      257
 152.3800      270
 152.4000      279
 152.4200      278
 152.4400      254
 152.4600      267
 152.4800      249
 152.5000      301
 152.5200      252
 152.5400      270
 152.5600      281
 152.5800      327
 152.6000      273
 152.6200      284
 152.6400      289
 152.6600      265
 152.6800      319
 152.7000      287
 152.7200      309
 152.7400      293
 152.7600      309
 152.7800      291
 152.8000      307
 152.8200      288
 152.8400      296
 152.8600      320
 152.8800      314
 152.9000      303
 152.9200      305
 152.9400      338
 152.9600      345
 152.9800      306
 153.0000      341
 153.0200      307
 153.0400      320
 153.0600      329
 153.0800      355
 153.1000      356
 153.1200      324
 153.1400      342
 153.1600      349
 153.1800      335
 153.2000      340
 153.2200      334
 153.2400      365
 153.2600      342
 153.2800      330
 153.3000      361
 153.3200      350
 153.3400      347
 153.3600      383
 153.3800      351
 153.4000      349
 153.4200      343
 153.4400      362
 153.4600      371
 153.4800      349
 153.5000      388
 153.5200      396
 153.5400      391
 153.5600      406
 153.5800      390
 153.6000      357
 153.6200      364
 153.6400      417
 153.6600      369
 153.6800      402
 153.7000      368
 153.7200      372
 153.7400      381
 153.7600      411
 153.7800      385
 153.8000      397
 153.8200      423
 153.8400      427
 153.8600      429
 153.8800      368
 153.9000      426
 153.9200      428
 153.9400      405
 153.9600      423
 153.9800      393
 154.0000      433
 154.0200      467
 154.0400      431
 154.0600      422
 154.0800      433
 154.1000      430
 154.1200      408
 154.1400      416
 154.1600      449
 154.1800      449
 154.2000      444
 154.2200      395
 154.2400      431
 154.2600      434
 154.2800      429
 154.3000      435
 154.3200      436
 154.3400      460
 154.3600      467
 154.3800      440
 154.4000      460
 154.4200      464
 154.4400      462
 154.4600      458
 154.4800      438
 154.5000      458
 154.5200      468
 154.5400      476
 154.5600      487
 154.5800      477
 154.6000      483
 154.6200      476
 154.6400      444
 154.6600      435
 154.6800      444
 154.7000      437
 154.7200      484
 154.7400      467
 154.7600      429
 154.7800      436
 154.8000      448
 154.8200      456
 154.8400      432
 154.8600      454
 154.8800      463
 154.9000      474
 154.9200      470
 154.9400      491
 154.9600      506
 154.9800      427
 155.0000      498

File: SDD_sample_name_01234_Psi-15_20180602-173423.txt
 150.0000      125
 150.0200      115
 150.0400      108
 150.0600      125
 150.0800      111
 150.1000      124
 150.1200      134
 150.1400      105
 150.1600      139
 150.1800      123
 150.2000      116
 150.2200      134
 150.2400      119
 150.2600      128
 150.2800      125
 150.3000      129
 150.3200      132
 150.3400      113
 150.3600      129
 150.3800      160
 150.4000      128
 150.4200      153
 150.4400      119
 150.4600      140
 150.4800      139
 150.5000      146
 150.5200      131
 150.5400      151
 150.5600      137
 150.5800      152
 150.6000      157
 150.6200      131
 150.6400      140
 150.6600      135
 150.6800      139
 150.7000      136
 150.7200      140
 150.7400      147
 150.7600      149
 150.7800      152
 150.8000      141
 150.8200      148
 150.8400      130
 150.8600      152
 150.8800      137
 150.9000      165
 150.9200      155
 150.9400      164
 150.9600      167
 150.9800      161
 151.0000      177
 151.0200      149
 151.0400      160
 151.0600      173
 151.0800      171
 151.1000      180
 151.1200      166
 151.1400      177
 151.1600      179
 151.1800      184
 151.2000      177
 151.2200      156
 151.2400      163
 151.2600      182
 151.2800      179
 151.3000      189
 151.3200      183
 151.3400      196
 151.3600      195
 151.3800      197
 151.4000      160
 151.4200      176
 151.4400      198
 151.4600      192
 151.4800      214
 151.5000      188
 151.5200      196
 151.5400      194
 151.5600      177
 151.5800      188
 151.6000      209
 151.6200      198
 151.6400      219
 151.6600      181
 151.6800      196
 151.7000      211
 151.7200      244
 151.7400      232
 151.7600      209
 151.7800      199
 151.8000      222
 151.8200      203
 151.8400      238
 151.8600      221
 151.8800      226
 151.9000      216
 151.9200      216
 151.9400      231
 151.9600      208
 151.9800      228
 152.0000      250
 152.0200      246
 152.0400      249
 152.0600      247
 152.0800      244
 152.1000      242
 152.1200      216
 152.1400      230
 152.1600      256
 152.1800      270
 152.2000      243
 152.2200      242
 152.2400      260
 152.2600      292
 152.2800      278
 152.3000      250
 152.3200      259
 152.3400      248
 152.3600      257
 152.3800      253
 152.4000      263
 152.4200      267
 152.4400      270
 152.4600      282
 152.4800      239
 152.5000      253
 152.5200      276
 152.5400      289
 152.5600      291
 152.5800      299
 152.6000      270
 152.6200      296
 152.6400      282
 152.6600      291
 152.6800      298
 152.7000      288
 152.7200      303
 152.7400      299
 152.7600      319
 152.7800      325
 152.8000      321
 152.8200      322
 152.8400      325
 152.8600      313
 152.8800      309
 152.9000      311
 152.9200      327
 152.9400      316
 152.9600      337
 152.9800      336
 153.0000      313
 153.0200      348
 153.0400      327
 153.0600      333
 153.0800      368
 153.1000      360
 153.1200      321
 153.1400      360
 153.1600      344
 153.1800      330
 153.2000      349
 153.2200      344
 153.2400      347
 153.2600      355
 153.2800      394
 153.3000      322
 153.3200      331
 153.3400      345
 153.3600      343
 153.3800      324
 153.4000      368
 153.4200      402
 153.4400      382
 153.4600      378
 153.4800      384
 153.5000      387
 153.5200      416
 153.5400      391
 153.5600      411
 153.5800      382
 153.6000      382
 153.6200      365
 153.6400      412
 153.6600      376
 153.6800      411
 153.7000      412
 153.7200      378
 153.7400      365
 153.7600      401
 153.7800      435
 153.8000      417
 153.8200      406
 153.8400      436
 153.8600      418
 153.8800      382
 153.9000      434
 153.9200      419
 153.9400      423
 153.9600      437
 153.9800      385
 154.0000      404
 154.0200      420
 154.0400      470
 154.0600      446
 154.0800      419
 154.1000      400
 154.1200      439
 154.1400      447
 154.1600      439
 154.1800      438
 154.2000      451
 154.2200      419
 154.2400      424
 154.2600      426
 154.2800      435
 154.3000      456
 154.3200      439
 154.3400      471
 154.3600      429
 154.3800      460
 154.4000      420
 154.4200      454
 154.4400      492
 154.4600      468
 154.4800      464
 154.5000      438
 154.5200      481
 154.5400      475
 154.5600      463
 154.5800      499
 154.6000      460
 154.6200      464
 154.6400      433
 154.6600      479
 154.6800      436
 154.7000      477
 154.7200      489
 154.7400      488
 154.7600      456
 154.7800      454
 154.8000      397
 154.8200      494
 154.8400      431
 154.8600      495
 154.8800      488
 154.9000      450
 154.9200      459
 154.9400      491
 154.9600      458
 154.9800      467
 155.0000      432