Folder: xrd/XRD_Tool/XRD_Tool/bin/Debug

Note: XRD_Tool/XRD_Tool/bin/Debug/20180620-log.txt
[2018-06-20 14:01:12 165]Log Start******************************************************

[2018-06-20 14:01:13 309] [UserLogin] login succeed!user=administrator,pwd=123456

[2018-06-20 14:01:13 630] [DeviceInit] Init faild, Uart Port not open

[2018-06-20 14:01:14 471] [DeviceInit] Init Skip

[2018-06-20 14:01:16 193] [Parent] Menu Texture

[2018-06-20 14:01:18 890] [Parent] closing
[2018-06-20 14:01:18 891]Log End******************************************************

Note: XRD_Tool/XRD_Tool/bin/Debug/__Psi-0_20180621-191019.txt
#   0.0000        0
#   5.0000        0
#  10.0000        0
#  15.0000        0
#  20.0000        0
#  25.0000        0
#  30.0000        0
#  35.0000        0
#  40.0000        0
#  45.0000        0
#  50.0000        0
#  55.0000        0
#  60.0000        0
#  65.0000        0
#  70.0000        0
#  75.0000        0
#  80.0000        0
#  85.0000        0
#  90.0000        0
#  95.0000        0
# 100.0000        0
# 105.0000        0
# 110.0000        0
# 115.0000        0
# 120.0000        0
# 125.0000        0
# 130.0000        0
# 135.0000        0
# 140.0000        0
# 145.0000        0
# 150.0000        0
# 155.0000        0
# 160.0000        0
# 165.0000        0
# 170.0000        0
# 175.0000        0
# 180.0000        0
# 185.0000        0
# 190.0000        0
# 195.0000        0
# 200.0000        0
# 205.0000        0
# 210.0000        0
# 215.0000        0
# 220.0000        0
# 225.0000        0
# 230.0000        0
# 235.0000        0
# 240.0000        0
# 245.0000        0
# 250.0000        0
# 255.0000        0
# 260.0000        0
# 265.0000        0
# 270.0000        0
# 275.0000        0
# 280.0000        0
# 285.0000        0
# 290.0000        0
# 295.0000        0
# 300.0000        0
# 305.0000        0
# 310.0000        0
# 315.0000        0
# 320.0000        0
# 325.0000        0
# 330.0000        0
# 335.0000        0
# 340.0000        0
# 345.0000        0
# 350.0000        0
# 355.0000        0

Note: XRD_Tool/XRD_Tool/bin/Debug/__Psi-5_20180621-172218.txt
#   0.0000      659
#   5.0000      636
#  10.0000      648
#  15.0000      704
#  20.0000      675
#  25.0000      679
#  30.0000      620
#  35.0000      654
#  40.0000      654
#  45.0000      627
#  50.0000      658
#  55.0000      636
#  60.0000      634
#  65.0000      643
#  70.0000      692
#  75.0000      634
#  80.0000      634
#  85.0000      664
#  90.0000      654
#  95.0000      636
# 100.0000      643
# 105.0000      646
# 110.0000      606
# 115.0000      621
# 120.0000      622
# 125.0000      661
# 130.0000      666
# 135.0000      632
# 140.0000      630
# 145.0000      627
# 150.0000      651
# 155.0000      586
# 160.0000      624
# 165.0000      652
# 170.0000      661
# 175.0000      644
# 180.0000      663
# 185.0000      622
# 190.0000      629
# 195.0000      647
# 200.0000      689
# 205.0000      613
# 210.0000      650
# 215.0000      605
# 220.0000      639
# 225.0000      642
# 230.0000      666
# 235.0000      654
# 240.0000      630
# 245.0000      656
# 250.0000      617
# 255.0000      638
# 260.0000      656
# 265.0000      679
# 270.0000      677
# 275.0000      634
# 280.0000      627
# 285.0000      679
# 290.0000      695
# 295.0000      617
# 300.0000      647
# 305.0000      683
# 310.0000      669
# 315.0000      669
# 320.0000      622
# 325.0000      620
# 330.0000      721
# 335.0000      660
# 340.0000      602
# 345.0000      642
# 350.0000      663
# 355.0000      600

Note: XRD_Tool/XRD_Tool/bin/Debug/__Psi-5_20180621-173805.txt
#   0.0000      630
#   5.0000      679
#  10.0000      605
#  15.0000      611
#  20.0000      648
#  25.0000      654
#  30.0000      636
#  35.0000      646
#  40.0000      634
#  45.0000      669
#  50.0000      644
#  55.0000      658
#  60.0000      603
#  65.0000      576
#  70.0000      654
#  75.0000      671
#  80.0000      690
#  85.0000      641
#  90.0000      631
#  95.0000      637
# 100.0000      633
# 105.0000      613
# 110.0000      633
# 115.0000      644
# 120.0000      626
# 125.0000      631
# 130.0000      686
# 135.0000      651
# 140.0000      646
# 145.0000      624
# 150.0000      636
# 155.0000      624
# 160.0000      651
# 165.0000      606
# 170.0000      662
# 175.0000      650
# 180.0000      671
# 185.0000      684
# 190.0000      647
# 195.0000      673
# 200.0000      690
# 205.0000      678
# 210.0000      657
# 215.0000      640
# 220.0000      622
# 225.0000      646
# 230.0000      640
# 235.0000      660
# 240.0000      601
# 245.0000      671
# 250.0000      630
# 255.0000      592
# 260.0000      651
# 265.0000      677
# 270.0000      610
# 275.0000      586
# 280.0000      642
# 285.0000      653
# 290.0000      622
# 295.0000      649
# 300.0000      637
# 305.0000      648
# 310.0000      633
# 315.0000      651
# 320.0000      668
# 325.0000      664
# 330.0000      653
# 335.0000      658
# 340.0000      642
# 345.0000      640
# 350.0000      634
# 355.0000      678

Note: XRD_Tool/XRD_Tool/bin/Debug/__Psi-5_20180621-184131.txt
#   0.0000      697
#   5.0000      593
#  10.0000      681
#  15.0000      619
#  20.0000      646
#  25.0000      647
#  30.0000      663
#  35.0000      676
#  40.0000      641
#  45.0000      668
#  50.0000      618
#  55.0000      718
#  60.0000      654
#  65.0000      655
#  70.0000      651
#  75.0000      618
#  80.0000      674
#  85.0000      669
#  90.0000      672
#  95.0000      624
# 100.0000      652
# 105.0000      615
# 110.0000      651
# 115.0000      658
# 120.0000      678
# 125.0000      700
# 130.0000      644
# 135.0000      655
# 140.0000      637
# 145.0000      661
# 150.0000      666
# 155.0000      599
# 160.0000      651
# 165.0000      675
# 170.0000      637
# 175.0000      637
# 180.0000      674
# 185.0000      632
# 190.0000      595
# 195.0000      643
# 200.0000      643
# 205.0000      631
# 210.0000      679
# 215.0000      633
# 220.0000      648
# 225.0000      626
# 230.0000      639
# 235.0000      612
# 240.0000      624
# 245.0000      650
# 250.0000      619
# 255.0000      620
# 260.0000      656
# 265.0000      619
# 270.0000      621
# 275.0000      654
# 280.0000      661
# 285.0000      593
# 290.0000      645
# 295.0000      688
# 300.0000      663
# 305.0000      646
# 310.0000      618
# 315.0000      658
# 320.0000      652
# 325.0000      619
# 330.0000      662
# 335.0000      680
# 340.0000      647
# 345.0000      652
# 350.0000      586
# 355.0000      626

File: 20180527-log.txt
[2018-05-27 11:57:09 438] UART Send: [
]

0D
[2018-05-27 11:57:09 563] UART Recv: @1[
C=]

0D0A433D
[2018-05-27 11:57:09 563] UART Send: [RFF
]

5246460D
[2018-05-27 11:57:09 703] UART Recv: @1[RFF
++101
C=]

5246460D0A2B2B3130310D0A433D
[2018-05-27 11:57:09 703] UART Send: [RKM
]

524B4D0D
[2018-05-27 11:57:09 843] UART Recv: @1[RKM
09.93

04.79
C=]

524B4D0D30392E39330D200D30342E37390D0A433D
[2018-05-27 11:57:28 127] UART Send: [/
]

2F0D
[2018-05-27 11:57:28 267] UART Recv: @3[
C=]

0D0A433D
[2018-05-27 11:57:28 267] UART Send: [MOD3
]

4D4F44330D
[2018-05-27 11:57:28 392] UART Recv: @3[MOD3
MOD3
MOD3
C=]

4D4F44330D0A4D4F44330D0A4D4F44330D0A433D
[2018-05-27 11:57:28 392] UART Send: [INT0.05
]

494E54302E30350D
[2018-05-27 11:57:28 532] UART Recv: @3[INT0.05
INT0.05
INT0.05
C=]

494E54302E30350D0A494E54302E30350D0A494E54302E30350D0A433D
[2018-05-27 11:57:28 532] UART Send: [STP0.02
]

535450302E30320D
[2018-05-27 11:57:28 673] UART Recv: @3[STP0.02
STP0.02
STP0.02
C=]

535450302E30320D0A535450302E30320D0A535450302E30320D0A433D
[2018-05-27 11:57:28 673] UART Send: [STA0
]

535441300D
[2018-05-27 11:57:28 797] UART Recv: @3[STA0
]

535441300D
[2018-05-27 11:57:38 376] UART Recv: @3[
C=   0.0000
C=]

0A433D202020302E303030300D0A433D
[2018-05-27 11:57:38 376] UART Send: [SAN147.5
]

53414E3134372E350D
[2018-05-27 11:57:38 501] UART Recv: @3[SAN147.5
]

53414E3134372E350D
[2018-05-27 11:57:39 764] UART Recv: @3[
C=]

0A433D
[2018-05-27 11:57:39 764] UART Send: [SKM25 30
]

534B4D32352033300D
[2018-05-27 11:57:39 889] UART Recv: @3[SKM25 30
]

534B4D32352033300D
[2018-05-27 11:57:44 616] UART Recv: @3[
C=]

0A433D
[2018-05-27 11:57:44 616] UART Send: [RKM
]

524B4D0D
[2018-05-27 11:57:44 756] UART Recv: @3[RKM
24.96

28.40
C=]

524B4D0D32342E39360D200D32382E34300D0A433D
[2018-05-27 11:57:44 756] UART Send: [SHO
]

53484F0D
[2018-05-27 11:57:44 897] UART Recv: @3[SHO
C=]

53484F0D0A433D
[2018-05-27 11:57:44 897] UART Send: [SSC5
]

535343350D
[2018-05-27 11:57:45 053] UART Recv: @3[SSC5
 147.5000       52
 147.5200       56
]

535343350D0A203134372E353030302020202020202035320D0A203134372E353230302020202020202035360D
[2018-05-27 11:57:45 053] CountDown start[0,42]

[2018-05-27 11:57:45 209] UART Recv: @3[
 147.5400       44
 147.5600       38
]

0A203134372E353430302020202020202034340D0A203134372E353630302020202020202033380D
[2018-05-27 11:57:45 209] CountDown start[0,42]

[2018-05-27 11:57:45 349] UART Recv: @3[
 147.5800       69
 147.6000       60
]

0A203134372E353830302020202020202036390D0A203134372E363030302020202020202036300D
[2018-05-27 11:57:45 349] CountDown start[0,42]

[2018-05-27 11:57:45 474] UART Recv: @3[
 147.6200       45
 147.6400       44
]

0A203134372E363230302020202020202034350D0A203134372E363430302020202020202034340D
[2018-05-27 11:57:45 474] CountDown start[0,42]

[2018-05-27 11:57:45 599] UART Recv: @3[
 147.6600       40
 147.6800       50
]

0A203134372E363630302020202020202034300D0A203134372E363830302020202020202035300D
[2018-05-27 11:57:45 599] CountDown start[0,42]

[2018-05-27 11:57:45 723] UART Recv: @3[
 147.7000       64
 147.7200       53
]

0A203134372E373030302020202020202036340D0A203134372E373230302020202020202035330D
[2018-05-27 11:57:45 723] CountDown start[0,42]

[2018-05-27 11:57:45 848] UART Recv: @3[
 147.7400       50
 147.7600       59
]

0A203134372E373430302020202020202035300D0A203134372E373630302020202020202035390D
[2018-05-27 11:57:45 848] CountDown start[0,42]

[2018-05-27 11:57:45 989] UART Recv: @3[
 147.7800       52
 147.8000       62
]

0A203134372E373830302020202020202035320D0A203134372E383030302020202020202036320D
[2018-05-27 11:57:45 989] CountDown start[0,42]

[2018-05-27 11:57:46 067] CountDown[0,42]

[2018-05-27 11:57:46 129] UART Recv: @3[
 147.8200       55
 147.8400       41
]

0A203134372E383230302020202020202035350D0A203134372E383430302020202020202034310D
[2018-05-27 11:57:46 129] CountDown start[0,42]

[2018-05-27 11:57:46 254] UART Recv: @3[
 147.8600       45
 147.8800       48
]

0A203134372E383630302020202020202034350D0A203134372E383830302020202020202034380D
[2018-05-27 11:57:46 254] CountDown start[0,42]

[2018-05-27 11:57:46 379] UART Recv: @3[
 147.9000       44
 147.9200       45
]

0A203134372E393030302020202020202034340D0A203134372E393230302020202020202034350D
[2018-05-27 11:57:46 379] CountDown start[0,42]

[2018-05-27 11:57:46 503] UART Recv: @3[
 147.9400       51
 147.9600       54
]

0A203134372E393430302020202020202035310D0A203134372E393630302020202020202035340D
[2018-05-27 11:57:46 503] CountDown start[0,42]

[2018-05-27 11:57:46 644] UART Recv: @3[
 147.9800       46
 148.0000       56
]

0A203134372E393830302020202020202034360D0A203134382E303030302020202020202035360D
[2018-05-27 11:57:46 644] CountDown start[0,42]

[2018-05-27 11:57:46 769] UART Recv: @3[
 148.0200       51
 148.0400       60
]

0A203134382E303230302020202020202035310D0A203134382E303430302020202020202036300D
[2018-05-27 11:57:46 769] CountDown start[0,42]

[2018-05-27 11:57:46 893] UART Recv: @3[
 148.0600       50
 148.0800       52
]

0A203134382E303630302020202020202035300D0A203134382E303830302020202020202035320D
[2018-05-27 11:57:46 893] CountDown start[0,42]

[2018-05-27 11:57:47 018] UART Recv: @3[
 148.1000       47
 148.1200       50
]

0A203134382E313030302020202020202034370D0A203134382E313230302020202020202035300D
[2018-05-27 11:57:47 018] CountDown start[0,42]

[2018-05-27 11:57:47 081] CountDown[0,42]

[2018-05-27 11:57:47 143] UART Recv: @3[
 148.1400       48
 148.1600       54
]

0A203134382E313430302020202020202034380D0A203134382E313630302020202020202035340D
[2018-05-27 11:57:47 143] CountDown start[0,42]

[2018-05-27 11:57:47 299] UART Recv: @3[
 148.1800       61
 148.2000       45
]

0A203134382E313830302020202020202036310D0A203134382E323030302020202020202034350D
[2018-05-27 11:57:47 299] CountDown start[0,42]

[2018-05-27 11:57:47 424] UART Recv: @3[
 148.2200       56
 148.2400       43
]

0A203134382E323230302020202020202035360D0A203134382E323430302020202020202034330D
[2018-05-27 11:57:47 424] CountDown start[0,42]

[2018-05-27 11:57:47 549] UART Recv: @3[
 148.2600       51
 148.2800       62
]

0A203134382E323630302020202020202035310D0A203134382E323830302020202020202036320D
[2018-05-27 11:57:47 549] CountDown start[0,42]

[2018-05-27 11:57:47 673] UART Recv: @3[
 148.3000       58
 148.3200       44
]

0A203134382E333030302020202020202035380D0A203134382E333230302020202020202034340D
[2018-05-27 11:57:47 673] CountDown start[0,42]

[2018-05-27 11:57:47 798] UART Recv: @3[
 148.3400       48
 148.3600       72
]

0A203134382E333430302020202020202034380D0A203134382E333630302020202020202037320D
[2018-05-27 11:57:47 798] CountDown start[0,42]

[2018-05-27 11:57:47 939] UART Recv: @3[
 148.3800       52
 148.4000       59
]

0A203134382E333830302020202020202035320D0A203134382E343030302020202020202035390D
[2018-05-27 11:57:47 939] CountDown start[0,42]

[2018-05-27 11:57:48 063] UART Recv: @3[
 148.4200       58
 148.4400       53
]

0A203134382E343230302020202020202035380D0A203134382E343430302020202020202035330D
[2018-05-27 11:57:48 063] CountDown start[0,42]

[2018-05-27 11:57:48 095] CountDown[0,42]

[2018-05-27 11:57:48 188] UART Recv: @3[
 148.4600       55
 148.4800       67
]

[...]
[2018-05-27 23:29:31 909] UART Send: [PAF
]

5041460D
[2018-05-27 23:29:32 034] UART Recv: @1[PAF
]

5041460D
[2018-05-27 23:29:32 322] UART Recv: @1[
ZTA-003.3647

ZTB-001.1079

ZTX-035.0000

ZTY-050.3295

ZTZ-005.0000

STP000.0200

INT001.0000

SPE0048

C=]

0A5A54412D3030332E333634370D0A0A5A54422D3030312E313037390D0A0A5A54582D3033352E303030300D0A0A5A54592D3035302E333239350D0A0A5A545A2D3030352E303030300D0A0A5354503030302E303230300D0A0A494E543030312E303030300D0A0A535045303034380D0A0A433D
[2018-05-27 23:29:32 323] UART Send: [SDP2
]

534450320D
[2018-05-27 23:29:32 449] UART Recv: @1[SDP2
]

534450320D
[2018-05-27 23:29:32 593] UART Recv: @1[
C=]

0A433D
[2018-05-27 23:29:32 607] TCP Send: [-reset]

2D7265736574
[2018-05-27 23:29:35 209] TCP Send: [-settings Cr]

2D73657474696E6773204372
[2018-05-27 23:29:35 210] TCP Recv: []

00000000
[2018-05-27 23:30:45 382] UART Send: [
]

0D
[2018-05-27 23:30:45 507] UART Recv: @1[
C=]

0D0A433D
[2018-05-27 23:30:45 510] UART Send: [RFF
]

5246460D
[2018-05-27 23:30:45 632] UART Recv: @1[RFF
++101
C=]

5246460D0A2B2B3130310D0A433D
[2018-05-27 23:30:45 636] UART Send: [RKM
]

524B4D0D
[2018-05-27 23:30:45 760] UART Recv: @1[RKM
00.00

00.00
C=]

524B4D0D30302E30300D200D30302E30300D0A433D
[2018-05-27 23:31:24 284] UART Send: [/
]

2F0D
[2018-05-27 23:31:24 416] UART Recv: @2[
C=]

0D0A433D
[2018-05-27 23:31:44 304] UART Send: [
]

0D
[2018-05-27 23:31:44 438] UART Recv: @1[
C=]

0D0A433D
[2018-05-27 23:31:44 440] UART Send: [RFF
]

5246460D
[2018-05-27 23:31:44 563] UART Recv: @1[RFF
++101
C=]

5246460D0A2B2B3130310D0A433D
[2018-05-27 23:31:44 565] UART Send: [RKM
]

524B4D0D
[2018-05-27 23:31:44 691] UART Recv: @1[RKM
00.00

00.00
C=]

524B4D0D30302E30300D200D30302E30300D0A433D
[2018-05-27 23:31:46 300] Exception[System.FormatException: String was not recognized as a valid DateTime.
   at System.DateTimeParse.Parse(String s, DateTimeFormatInfo dtfi, DateTimeStyles styles)
   at System.Convert.ToDateTime(String value)
   at XRD_Tool.FormDeviceInit.WarmUpCheck() in d:\PCTool\XRD_Tool_20180527_2100\XRD_Tool\XRD_Tool\FormDeviceInit.cs:line 495]

[2018-05-27 23:31:46 301] UART Send: [PAR
]

5041520D
[2018-05-27 23:31:46 434] UART Recv: @1[PAR
LWL30
UPL75
SPE0.02
STP0.02
INT0.05
MXN10
MXT1
MXS0.005
MOD3
WAV1.48564
TSZ 45.3500
TDZ 19.3150

C=]

5041520D0A4C574C33300D0A55504C37350D0A535045302E30320D0A535450302E30320D0A494E54302E30350D0A4D584E31300D0A4D5854310D0A4D5853302E3030350D0A4D4F44330D0A574156312E34383536340D0A54535A2034352E333530300D0A54445A2031392E333135300D0A0A433D
[2018-05-27 23:31:46 436] UART Send: [PAF
]

5041460D
[2018-05-27 23:31:46 562] UART Recv: @1[PAF
]

5041460D
[2018-05-27 23:31:46 849] UART Recv: @1[
ZTA-003.3647

ZTB-001.1079

ZTX-035.0000

ZTY-050.3295

ZTZ-005.0000

STP000.0200

INT001.0000

SPE0048

C=]

0A5A54412D3030332E333634370D0A0A5A54422D3030312E313037390D0A0A5A54582D3033352E303030300D0A0A5A54592D3035302E333239350D0A0A5A545A2D3030352E303030300D0A0A5354503030302E303230300D0A0A494E543030312E303030300D0A0A535045303034380D0A0A433D
[2018-05-27 23:31:46 850] UART Send: [SDP2
]

534450320D
[2018-05-27 23:31:46 977] UART Recv: @1[SDP2
]

534450320D
[2018-05-27 23:31:47 121] UART Recv: @1[
C=]

0A433D
[2018-05-27 23:31:47 141] TCP Send: [-reset]

2D7265736574
[2018-05-27 23:31:49 741] TCP Send: [-settings Cr]

2D73657474696E6773204372
[2018-05-27 23:31:49 742] TCP Recv: []

00000000
[2018-05-27 23:34:06 491] TCP Send: [-start]

2D7374617274