Folder: xrd/XRD_Tool/XRD_Tool/bin/Debug (part 22)

File: SDD_sample_name_01234_Psi-0_20180602-195316.txt
 150.0000      127
 150.0400      141
 150.0800      140
 150.1200      152
 150.1600      146
 150.2000      131
 150.2400      138
 150.2800      134
 150.3200      141
 150.3600      153
 150.4000      162
 150.4400      159
 150.4800      144
 150.5200      158
 150.5600      142
 150.6000      145
 150.6400      135
 150.6800      173
 150.7200      173
 150.7600      172
 150.8000      174
 150.8400      157
 150.8800      149
 150.9200      166
 150.9600      170
 151.0000      173
 151.0400      178
 151.0800      182
 151.1200      200
 151.1600      168
 151.2000      180
 151.2400      174
 151.2800      186
 151.3200      207
 151.3600      191
 151.4000      209
 151.4400      214
 151.4800      197
 151.5200      225
 151.5600      208
 151.6000      214
 151.6400      234
 151.6800      203
 151.7200      207
 151.7600      246
 151.8000      220
 151.8400      237
 151.8800      243
 151.9200      247
 151.9600      249
 152.0000      263
 152.0400      266
 152.0800      252
 152.1200      273
 152.1600      259
 152.2000      295
 152.2400      250
 152.2800      286
 152.3200      276
 152.3600      303
 152.4000      274
 152.4400      276
 152.4800      310
 152.5200      333
 152.5600      315
 152.6000      316
 152.6400      328
 152.6800      312
 152.7200      342
 152.7600      341
 152.8000      319
 152.8400      337
 152.8800      346
 152.9200      349
 152.9600      392
 153.0000      332
 153.0400      339
 153.0800      340
 153.1200      348
 153.1600      402
 153.2000      378
 153.2400      394
 153.2800      366
 153.3200      415
 153.3600      381
 153.4000      413
 153.4400      426
 153.4800      416
 153.5200      398
 153.5600      409
 153.6000      442
 153.6400      423
 153.6800      426
 153.7200      423
 153.7600      452
 153.8000      428
 153.8400      396
 153.8800      448
 153.9200      443
 153.9600      459
 154.0000      483
 154.0400      423
 154.0800      438
 154.1200      483
 154.1600      450
 154.2000      457
 154.2400      445
 154.2800      437
 154.3200      483
 154.3600      468
 154.4000      458
 154.4400      463
 154.4800      471
 154.5200      431
 154.5600      498
 154.6000      475
 154.6400      464
 154.6800      484
 154.7200      477
 154.7600      477
 154.8000      462
 154.8400      457
 154.8800      486
 154.9200      527
 154.9600      438
 155.0000      478
 155.0400      501
 155.0800      501
 155.1200      498
 155.1600      476
 155.2000      453
 155.2400      449
 155.2800      459
 155.3200      480
 155.3600      494
 155.4000      475
 155.4400      476
 155.4800      484
 155.5200      501
 155.5600      442
 155.6000      448
 155.6400      453
 155.6800      438
 155.7200      425
 155.7600      477
 155.8000      444
 155.8400      456
 155.8800      461
 155.9200      390
 155.9600      445
 156.0000      439
 156.0400      453
 156.0800      424
 156.1200      443
 156.1600      394
 156.2000      417
 156.2400      423
 156.2800      397
 156.3200      393
 156.3600      401
 156.4000      389
 156.4400      365
 156.4800      382
 156.5200      385
 156.5600      382
 156.6000      362
 156.6400      366
 156.6800      380
 156.7200      357
 156.7600      343
 156.8000      374
 156.8400      343
 156.8800      342
 156.9200      334
 156.9600      400
 157.0000      375
 157.0400      348
 157.0800      308
 157.1200      335
 157.1600      375
 157.2000      314
 157.2400      326
 157.2800      289
 157.3200      304
 157.3600      294
 157.4000      284
 157.4400      291
 157.4800      267
 157.5200      310
 157.5600      276
 157.6000      275
 157.6400      276
 157.6800      298
 157.7200      279
 157.7600      272
 157.8000      248
 157.8400      254
 157.8800      285
 157.9200      261
 157.9600      242
 158.0000      260

File: SDD_sample_name_01234_Psi-15_20180527-115812.txt
 147.5000       47
 147.5200       48
 147.5400       48
 147.5600       59
 147.5800       52
 147.6000       47
 147.6200       52
 147.6400       49
 147.6600       48
 147.6800       43
 147.7000       59
 147.7200       55
 147.7400       55
 147.7600       52
 147.7800       55
 147.8000       35
 147.8200       63
 147.8400       48
 147.8600       59
 147.8800       53
 147.9000       46
 147.9200       51
 147.9400       56
 147.9600       44
 147.9800       46
 148.0000       57
 148.0200       52
 148.0400       38
 148.0600       58
 148.0800       58
 148.1000       51
 148.1200       58
 148.1400       61
 148.1600       57
 148.1800       55
 148.2000       53
 148.2200       59
 148.2400       49
 148.2600       56
 148.2800       51
 148.3000       55
 148.3200       64
 148.3400       58
 148.3600       61
 148.3800       55
 148.4000       59
 148.4200       59
 148.4400       64
 148.4600       70
 148.4800       48
 148.5000       51
 148.5200       52
 148.5400       68
 148.5600       54
 148.5800       48
 148.6000       56
 148.6200       71
 148.6400       57
 148.6600       58
 148.6800       56
 148.7000       63
 148.7200       53
 148.7400       66
 148.7600       59
 148.7800       70
 148.8000       50
 148.8200       56
 148.8400       58
 148.8600       45
 148.8800       54
 148.9000       54
 148.9200       61
 148.9400       75
 148.9600       46
 148.9800       65
 149.0000       52
 149.0200       45
 149.0400       63
 149.0600       46
 149.0800       47
 149.1000       64
 149.1200       61
 149.1400       71
 149.1600       64
 149.1800       57
 149.2000       76
 149.2200       50
 149.2400       60
 149.2600       63
 149.2800       57
 149.3000       61
 149.3200       53
 149.3400       70
 149.3600       52
 149.3800       71
 149.4000       60
 149.4200       65
 149.4400       63
 149.4600       59
 149.4800       52
 149.5000       73
 149.5200       59
 149.5400       63
 149.5600       58
 149.5800       66
 149.6000       62
 149.6200       62
 149.6400       71
 149.6600       73
 149.6800       48
 149.7000       62
 149.7200       51
 149.7400       68
 149.7600       62
 149.7800       72
 149.8000       53
 149.8200       56
 149.8400       66
 149.8600       48
 149.8800       58
 149.9000       74
 149.9200       64
 149.9400       54
 149.9600       50
 149.9800       55
 150.0000       57
 150.0200       54
 150.0400       68
 150.0600       66
 150.0800       51
 150.1000       56
 150.1200       51
 150.1400       55
 150.1600       72
 150.1800       62
 150.2000       70
 150.2200       76
 150.2400       57
 150.2600       63
 150.2800       47
 150.3000       51
 150.3200       68
 150.3400       57
 150.3600       84
 150.3800       63
 150.4000       74
 150.4200       70
 150.4400       74
 150.4600       69
 150.4800       76
 150.5000       72
 150.5200       69
 150.5400       54
 150.5600       70
 150.5800       68
 150.6000       68
 150.6200       84
 150.6400       81
 150.6600       71
 150.6800       50
 150.7000       69
 150.7200       83
 150.7400       76
 150.7600       72
 150.7800       82
 150.8000       63
 150.8200       81
 150.8400       71
 150.8600       81
 150.8800       92
 150.9000       76
 150.9200       69
 150.9400       77
 150.9600       71
 150.9800       87
 151.0000       86
 151.0200       71
 151.0400       81
 151.0600       77
 151.0800       76
 151.1000       77
 151.1200       81
 151.1400       82
 151.1600      100
 151.1800      105
 151.2000       76
 151.2200       81
 151.2400       91
 151.2600       84
 151.2800       89
 151.3000       86
 151.3200       63
 151.3400       80
 151.3600       81
 151.3800       99
 151.4000       93
 151.4200       76
 151.4400       93
 151.4600       76
 151.4800      103
 151.5000       92
 151.5200       89
 151.5400      104
 151.5600       89
 151.5800       82
 151.6000       91
 151.6200       91
 151.6400      106
 151.6600       88
 151.6800       69
 151.7000      105
 151.7200       98
 151.7400       99
 151.7600      105
 151.7800      104
 151.8000      101
 151.8200      117
 151.8400      104
 151.8600       90
 151.8800      103
 151.9000       91
 151.9200      121
 151.9400       91
 151.9600      102
 151.9800      109
 152.0000      106
 152.0200      113
 152.0400       91
 152.0600      117
 152.0800      129
 152.1000      107
 152.1200      114
 152.1400      113
 152.1600      112
 152.1800      144
 152.2000      128
 152.2200      118
 152.2400      127
 152.2600      107
 152.2800      104
 152.3000      125
 152.3200      150
 152.3400      130
 152.3600      161
 152.3800      134
 152.4000      158
 152.4200      155
 152.4400      134
 152.4600      133
 152.4800      136
 152.5000      148

File: SDD_sample_name_01234_Psi-15_20180527-123958.txt
 147.5000       51
 147.5200       56
 147.5400       70
 147.5600       60
 147.5800       57
 147.6000       50
 147.6200       51
 147.6400       47
 147.6600       50
 147.6800       55
 147.7000       43
 147.7200       47
 147.7400       48
 147.7600       56
 147.7800       55
 147.8000       71
 147.8200       62
 147.8400       45
 147.8600       54
 147.8800       43
 147.9000       51
 147.9200       55
 147.9400       62
 147.9600       51
 147.9800       66
 148.0000       46
 148.0200       65
 148.0400       61
 148.0600       51
 148.0800       66
 148.1000       58
 148.1200       58
 148.1400       57
 148.1600       62
 148.1800       50
 148.2000       69
 148.2200       62
 148.2400       62
 148.2600       46
 148.2800       57
 148.3000       57
 148.3200       59
 148.3400       54
 148.3600       57
 148.3800       66
 148.4000       51
 148.4200       56
 148.4400       49
 148.4600       60
 148.4800       49
 148.5000       60
 148.5200       58
 148.5400       41
 148.5600       64
 148.5800       42
 148.6000       50
 148.6200       51
 148.6400       55
 148.6600       45
 148.6800       59
 148.7000       65
 148.7200       66
 148.7400       53
 148.7600       57
 148.7800       56
 148.8000       58
 148.8200       49
 148.8400       62
 148.8600       51
 148.8800       67
 148.9000       46
 148.9200       54
 148.9400       58
 148.9600       65
 148.9800       66
 149.0000       55
 149.0200       49
 149.0400       64
 149.0600       52
 149.0800       56
 149.1000       64
 149.1200       58
 149.1400       64
 149.1600       58
 149.1800       66
 149.2000       43
 149.2200       63
 149.2400       50
 149.2600       75
 149.2800       57
 149.3000       62
 149.3200       59
 149.3400       53
 149.3600       65
 149.3800       60
 149.4000       54
 149.4200       47
 149.4400       53
 149.4600       54
 149.4800       61
 149.5000       65
 149.5200       61
 149.5400       63
 149.5600       65
 149.5800       54
 149.6000       65
 149.6200       63
 149.6400       72
 149.6600       67
 149.6800       64
 149.7000       69
 149.7200       60
 149.7400       70
 149.7600       59
 149.7800       54
 149.8000       59
 149.8200       67
 149.8400       63
 149.8600       64
 149.8800       52
 149.9000       58
 149.9200       70
 149.9400       69
 149.9600       59
 149.9800       63
 150.0000       70
 150.0200       73
 150.0400       63
 150.0600       69
 150.0800       78
 150.1000       79
 150.1200       67
 150.1400       63
 150.1600       59
 150.1800       44
 150.2000       78
 150.2200       57
 150.2400       66
 150.2600       63
 150.2800       82
 150.3000       69
 150.3200       55
 150.3400       69
 150.3600       61
 150.3800       79
 150.4000       63
 150.4200       79
 150.4400       74
 150.4600       70
 150.4800       75
 150.5000       65
 150.5200       74
 150.5400       87
 150.5600       59
 150.5800       81
 150.6000       85
 150.6200       93
 150.6400       92
 150.6600       75
 150.6800       68
 150.7000       67
 150.7200       73
 150.7400       77
 150.7600       86
 150.7800       56
 150.8000       76
 150.8200       82
 150.8400       65
 150.8600       80
 150.8800       76
 150.9000       73
 150.9200       81
 150.9400       71
 150.9600       92
 150.9800       69
 151.0000       75
 151.0200       93
 151.0400       81
 151.0600       84
 151.0800       86
 151.1000       74
 151.1200       88
 151.1400       90
 151.1600       86
 151.1800       77
 151.2000       73
 151.2200       95
 151.2400       70
 151.2600       65
 151.2800       88
 151.3000       92
 151.3200       76
 151.3400       83
 151.3600       85
 151.3800       78
 151.4000       95
 151.4200       93
 151.4400       77
 151.4600       97
 151.4800      108
 151.5000       98
 151.5200       96
 151.5400       80
 151.5600       90
 151.5800      107
 151.6000       98
 151.6200       94
 151.6400       99
 151.6600      102
 151.6800       96
 151.7000      112
 151.7200       80
 151.7400       92
 151.7600       96
 151.7800       91
 151.8000       96
 151.8200       92
 151.8400      109
 151.8600      119
 151.8800      114
 151.9000      104
 151.9200      111
 151.9400      109
 151.9600      119
 151.9800      120
 152.0000       99
 152.0200      113
 152.0400      129
 152.0600      102
 152.0800      104
 152.1000      128
 152.1200      118
 152.1400      117
 152.1600      119
 152.1800      113
 152.2000      112
 152.2200      122
 152.2400      139
 152.2600      128
 152.2800      128
 152.3000      134
 152.3200      122
 152.3400      128
 152.3600      140
 152.3800      135
 152.4000      122
 152.4200      154
 152.4400      135
 152.4600      144
 152.4800      160
 152.5000      144

File: SDD_sample_name_01234_Psi-15_20180527-125217.txt
 147.5000       47
 147.5200       50
 147.5400       45
 147.5600       61
 147.5800       44
 147.6000       43
 147.6200       64
 147.6400       52
 147.6600       47
 147.6800       67
 147.7000       46
 147.7200       50
 147.7400       49
 147.7600       70
 147.7800       53
 147.8000       52
 147.8200       52
 147.8400       51
 147.8600       66
 147.8800       54
 147.9000       56
 147.9200       49
 147.9400       46
 147.9600       48
 147.9800       50
 148.0000       70
 148.0200       54
 148.0400       41
 148.0600       51
 148.0800       48
 148.1000       50
 148.1200       42
 148.1400       61
 148.1600       46
 148.1800       60
 148.2000       67
 148.2200       56
 148.2400       66
 148.2600       44
 148.2800       65
 148.3000       36
 148.3200       62
 148.3400       43
 148.3600       65
 148.3800       49
 148.4000       63
 148.4200       47
 148.4400       58
 148.4600       55
 148.4800       43
 148.5000       65
 148.5200       58
 148.5400       51
 148.5600       49
 148.5800       44
 148.6000       56
 148.6200       52
 148.6400       60
 148.6600       60
 148.6800       59
 148.7000       56
 148.7200       64
 148.7400       61
 148.7600       63
 148.7800       56
 148.8000       52
 148.8200       47
 148.8400       57
 148.8600       61
 148.8800       57
 148.9000       57
 148.9200       52
 148.9400       61
 148.9600       60
 148.9800       53
 149.0000       67
 149.0200       69
 149.0400       43
 149.0600       63
 149.0800       59
 149.1000       65
 149.1200       61
 149.1400       55
 149.1600       57
 149.1800       56
 149.2000       62
 149.2200       54
 149.2400       63
 149.2600       49
 149.2800       55
 149.3000       67
 149.3200       57
 149.3400       48
 149.3600       54
 149.3800       50
 149.4000       57
 149.4200       61
 149.4400       60
 149.4600       64
 149.4800       74
 149.5000       70
 149.5200       61
 149.5400       57
 149.5600       66
 149.5800       68
 149.6000       69
 149.6200       55
 149.6400       65
 149.6600       62
 149.6800       69
 149.7000       57
 149.7200       56
 149.7400       65
 149.7600       62
 149.7800       56
 149.8000       54
 149.8200       62
 149.8400       71
 149.8600       64
 149.8800       53
 149.9000       58
 149.9200       59
 149.9400       69
 149.9600       57
 149.9800       61
 150.0000       63
 150.0200       76
 150.0400       78
 150.0600       61
 150.0800       53
 150.1000       70
 150.1200       57
 150.1400       65
 150.1600       59
 150.1800       49
 150.2000       74
 150.2200       74
 150.2400       60
 150.2600       68
 150.2800       50
 150.3000       64
 150.3200       82
 150.3400       58
 150.3600       55
 150.3800       70
 150.4000       68
 150.4200       64
 150.4400       68
 150.4600       60
 150.4800       77
 150.5000       69
 150.5200       71
 150.5400       67
 150.5600       62
 150.5800       54
 150.6000       70
 150.6200       74
 150.6400       54
 150.6600       64
 150.6800       79
 150.7000       75
 150.7200       76
 150.7400       74
 150.7600       54
 150.7800       70
 150.8000       60
 150.8200       67
 150.8400       68
 150.8600       77
 150.8800       58
 150.9000       77
 150.9200       77
 150.9400       86
 150.9600       79
 150.9800       71
 151.0000       49
 151.0200       78
 151.0400       75
 151.0600       82
 151.0800       72
 151.1000       77
 151.1200       80
 151.1400       83
 151.1600       95
 151.1800       67
 151.2000       75
 151.2200       80
 151.2400       75
 151.2600       61
 151.2800       93
 151.3000       94
 151.3200       77
 151.3400      103
 151.3600      113
 151.3800       68
 151.4000       91
 151.4200       91
 151.4400       99
 151.4600       91
 151.4800      118
 151.5000       68
 151.5200       98
 151.5400       91
 151.5600       80
 151.5800       76
 151.6000       97
 151.6200       91
 151.6400       95
 151.6600       86
 151.6800      101
 151.7000       96
 151.7200       95
 151.7400       83
 151.7600       82
 151.7800      118
 151.8000      104
 151.8200      103
 151.8400      107
 151.8600       95
 151.8800       97
 151.9000       97
 151.9200      115
 151.9400       94
 151.9600      131
 151.9800      117
 152.0000      120
 152.0200      117
 152.0400      114
 152.0600      108
 152.0800      115
 152.1000      111
 152.1200      127
 152.1400      118
 152.1600      116
 152.1800      114
 152.2000      135
 152.2200      127
 152.2400      127
 152.2600      118
 152.2800      117
 152.3000      123
 152.3200      113
 152.3400      124
 152.3600      124
 152.3800       95
 152.4000      154
 152.4200      155
 152.4400      139
 152.4600      155
 152.4800      142
 152.5000      142

File: SDD_sample_name_01234_Psi-15_20180602-095528.txt
 145.0000       31
 145.0400       32
 145.0800       40
 145.1200       39
 145.1600       26
 145.2000       37
 145.2400       34
 145.2800       39
 145.3200       42
 145.3600       42
 145.4000       34
 145.4400       35
 145.4800       26
 145.5200       50
 145.5600       40
 145.6000       43
 145.6400       36
 145.6800       38
 145.7200       36
 145.7600       47
 145.8000       28
 145.8400       39
 145.8800       31
 145.9200       43
 145.9600       45
 146.0000       39
 146.0400       44
 146.0800       30
 146.1200       43
 146.1600       35
 146.2000       36
 146.2400       38
 146.2800       35
 146.3200       38
 146.3600       44
 146.4000       37
 146.4400       34
 146.4800       38
 146.5200       44
 146.5600       39
 146.6000       39
 146.6400       38
 146.6800       37
 146.7200       42
 146.7600       34
 146.8000       46
 146.8400       42
 146.8800       32
 146.9200       33
 146.9600       27
 147.0000       41
 147.0400       36
 147.0800       48
 147.1200       43
 147.1600       50
 147.2000       55
 147.2400       47
 147.2800       34
 147.3200       46
 147.3600       31
 147.4000       40
 147.4400       41
 147.4800       35
 147.5200       36
 147.5600       35
 147.6000       50
 147.6400       41
 147.6800       47
 147.7200       46
 147.7600       37
 147.8000       38
 147.8400       40
 147.8800       45
 147.9200       40
 147.9600       48
 148.0000       38
 148.0400       38
 148.0800       58
 148.1200       55
 148.1600       39
 148.2000       47
 148.2400       32
 148.2800       38
 148.3200       40
 148.3600       37
 148.4000       43
 148.4400       55
 148.4800       59
 148.5200       43
 148.5600       47
 148.6000       40
 148.6400       52
 148.6800       43
 148.7200       47
 148.7600       39
 148.8000       49
 148.8400       45
 148.8800       49
 148.9200       43
 148.9600       46
 149.0000       41
 149.0400       44
 149.0800       34
 149.1200       41
 149.1600       47
 149.2000       46
 149.2400       30
 149.2800       61
 149.3200       53
 149.3600       52
 149.4000       42
 149.4400       52
 149.4800       44
 149.5200       54
 149.5600       46
 149.6000       40
 149.6400       64
 149.6800       62
 149.7200       60
 149.7600       54
 149.8000       47
 149.8400       51
 149.8800       50
 149.9200       55
 149.9600       64
 150.0000       43
 150.0400       44
 150.0800       58
 150.1200       50
 150.1600       57
 150.2000       64
 150.2400       54
 150.2800       67
 150.3200       46
 150.3600       58
 150.4000       62
 150.4400       48
 150.4800       63
 150.5200       56
 150.5600       55
 150.6000       55
 150.6400       47
 150.6800       57
 150.7200       53
 150.7600       57
 150.8000       68
 150.8400       64
 150.8800       58
 150.9200       52
 150.9600       73
 151.0000       61
 151.0400       63
 151.0800       73
 151.1200       76
 151.1600       66
 151.2000       74
 151.2400       69
 151.2800       80
 151.3200       78
 151.3600       89
 151.4000       83
 151.4400       75
 151.4800       68
 151.5200       66
 151.5600       85
 151.6000       59
 151.6400       99
 151.6800      101
 151.7200       90
 151.7600       81
 151.8000       93
 151.8400      109
 151.8800      107
 151.9200       82
 151.9600      107
 152.0000       96
 152.0400       84
 152.0800      102
 152.1200       93
 152.1600      118
 152.2000      109
 152.2400      127
 152.2800      105
 152.3200      114
 152.3600      125
 152.4000      114
 152.4400      147
 152.4800      127
 152.5200      145
 152.5600      151
 152.6000      128
 152.6400      154
 152.6800      161
 152.7200      153
 152.7600      161
 152.8000      171
 152.8400      146
 152.8800      162
 152.9200      170
 152.9600      170
 153.0000      160
 153.0400      189
 153.0800      210
 153.1200      193
 153.1600      192
 153.2000      232
 153.2400      202
 153.2800      215
 153.3200      217
 153.3600      246
 153.4000      244
 153.4400      269
 153.4800      249
 153.5200      265
 153.5600      276
 153.6000      285
 153.6400      279
 153.6800      306
 153.7200      335
 153.7600      329
 153.8000      337
 153.8400      338
 153.8800      340
 153.9200      322
 153.9600      357
 154.0000      363
 154.0400      382
 154.0800      363
 154.1200      404
 154.1600      381
 154.2000      397
 154.2400      393
 154.2800      459
 154.3200      436
 154.3600      415
 154.4000      462
 154.4400      411
 154.4800      456
 154.5200      463
 154.5600      465
 154.6000      484
 154.6400      466
 154.6800      470
 154.7200      464
 154.7600      448
 154.8000      455
 154.8400      458
 154.8800      469
 154.9200      463
 154.9600      461
 155.0000      463