Folder: xrd/XRD_Tool/XRD_Tool/bin/Debug (part 16)

File: SDD_sample_name_001_Psi-15_20180528-050438.txt
 150.0000       72
 150.0400       64
 150.0800       68
 150.1200       67
 150.1600       75
 150.2000       66
 150.2400       73
 150.2800       70
 150.3200       62
 150.3600       56
 150.4000       63
 150.4400       70
 150.4800       80
 150.5200       72
 150.5600       74
 150.6000       79
 150.6400       68
 150.6800       72
 150.7200       81
 150.7600       80
 150.8000       59
 150.8400       69
 150.8800       73
 150.9200       82
 150.9600       61
 151.0000       91
 151.0400       63
 151.0800       65
 151.1200       69
 151.1600       78
 151.2000       86
 151.2400       84
 151.2800       83
 151.3200       93
 151.3600       97
 151.4000       78
 151.4400       86
 151.4800       85
 151.5200       88
 151.5600       80
 151.6000      101
 151.6400       99
 151.6800       82
 151.7200       96
 151.7600      109
 151.8000       83
 151.8400      107
 151.8800      117
 151.9200      100
 151.9600      105
 152.0000      107
 152.0400      100
 152.0800      104
 152.1200       98
 152.1600      134
 152.2000      131
 152.2400      141
 152.2800      119
 152.3200      119
 152.3600      131
 152.4000      127
 152.4400      125
 152.4800      120
 152.5200      123
 152.5600      123
 152.6000      130
 152.6400      138
 152.6800      142
 152.7200      141
 152.7600      169
 152.8000      187
 152.8400      166
 152.8800      169
 152.9200      200
 152.9600      166
 153.0000      190
 153.0400      201
 153.0800      211
 153.1200      203
 153.1600      178
 153.2000      188
 153.2400      222
 153.2800      227
 153.3200      202
 153.3600      258
 153.4000      237
 153.4400      258
 153.4800      263
 153.5200      269
 153.5600      267
 153.6000      280
 153.6400      262
 153.6800      296
 153.7200      274
 153.7600      303
 153.8000      338
 153.8400      344
 153.8800      317
 153.9200      340
 153.9600      326
 154.0000      354
 154.0400      361
 154.0800      342
 154.1200      339
 154.1600      372
 154.2000      383
 154.2400      393
 154.2800      452
 154.3200      422
 154.3600      424
 154.4000      428
 154.4400      393
 154.4800      409
 154.5200      402
 154.5600      425
 154.6000      409
 154.6400      454
 154.6800      468
 154.7200      495
 154.7600      428
 154.8000      450
 154.8400      447
 154.8800      476
 154.9200      421
 154.9600      442
 155.0000      435
 155.0400      453
 155.0800      437
 155.1200      433
 155.1600      437
 155.2000      439
 155.2400      430
 155.2800      411
 155.3200      455
 155.3600      465
 155.4000      434
 155.4400      416
 155.4800      418
 155.5200      417
 155.5600      413
 155.6000      394
 155.6400      389
 155.6800      418
 155.7200      391
 155.7600      349
 155.8000      385
 155.8400      338
 155.8800      349
 155.9200      353
 155.9600      321
 156.0000      335
 156.0400      281
 156.0800      351
 156.1200      289
 156.1600      287
 156.2000      285
 156.2400      284
 156.2800      297
 156.3200      251
 156.3600      273
 156.4000      251
 156.4400      256
 156.4800      259
 156.5200      245
 156.5600      248
 156.6000      221
 156.6400      249
 156.6800      224
 156.7200      216
 156.7600      200
 156.8000      210
 156.8400      192
 156.8800      195
 156.9200      194
 156.9600      208
 157.0000      179
 157.0400      189
 157.0800      181
 157.1200      191
 157.1600      191
 157.2000      179
 157.2400      162
 157.2800      179
 157.3200      163
 157.3600      169
 157.4000      141
 157.4400      154
 157.4800      156
 157.5200      125
 157.5600      152
 157.6000      157
 157.6400      152
 157.6800      137
 157.7200      130
 157.7600      136
 157.8000      119
 157.8400      126
 157.8800      135
 157.9200       98
 157.9600      112
 158.0000      130
 158.0400      107
 158.0800      140
 158.1200      103
 158.1600      113
 158.2000      118
 158.2400      120
 158.2800      120
 158.3200      101
 158.3600      108
 158.4000      103
 158.4400      124
 158.4800      105
 158.5200      112
 158.5600      113
 158.6000      100
 158.6400      107
 158.6800      105
 158.7200       98
 158.7600       91
 158.8000      105
 158.8400       92
 158.8800       95
 158.9200      110
 158.9600       87
 159.0000       83
 159.0400       99
 159.0800       83
 159.1200       84
 159.1600       83
 159.2000       81
 159.2400      115
 159.2800       88
 159.3200       86
 159.3600       82
 159.4000       89
 159.4400       88
 159.4800       96
 159.5200       86
 159.5600       78
 159.6000       77
 159.6400       86
 159.6800       73
 159.7200       84
 159.7600       86
 159.8000       83
 159.8400       66
 159.8800       71
 159.9200       88
 159.9600       97
 160.0000       77

File: SDD_sample_name_001_Psi-15_20180528-074458.txt
 150.0000       56
 150.0400       59
 150.0800       73
 150.1200       76
 150.1600       70
 150.2000       75
 150.2400       79
 150.2800       66
 150.3200       72
 150.3600       84
 150.4000       69
 150.4400       65
 150.4800       65
 150.5200       70
 150.5600       78
 150.6000       70
 150.6400       81
 150.6800       67
 150.7200       79
 150.7600       84
 150.8000       58
 150.8400       55
 150.8800       65
 150.9200       78
 150.9600       75
 151.0000       77
 151.0400       65
 151.0800       71
 151.1200       73
 151.1600       95
 151.2000       83
 151.2400       76
 151.2800       92
 151.3200       79
 151.3600       82
 151.4000       90
 151.4400       92
 151.4800       87
 151.5200       90
 151.5600      115
 151.6000       96
 151.6400       85
 151.6800       97
 151.7200       86
 151.7600       75
 151.8000      109
 151.8400       88
 151.8800       99
 151.9200      115
 151.9600      103
 152.0000      114
 152.0400      111
 152.0800      128
 152.1200      118
 152.1600      108
 152.2000      132
 152.2400      132
 152.2800      133
 152.3200      122
 152.3600      122
 152.4000      142
 152.4400      131
 152.4800      156
 152.5200      128
 152.5600      134
 152.6000      158
 152.6400      140
 152.6800      165
 152.7200      142
 152.7600      160
 152.8000      166
 152.8400      191
 152.8800      181
 152.9200      149
 152.9600      174
 153.0000      173
 153.0400      209
 153.0800      211
 153.1200      216
 153.1600      212
 153.2000      226
 153.2400      237
 153.2800      235
 153.3200      225
 153.3600      252
 153.4000      278
 153.4400      271
 153.4800      292
 153.5200      300
 153.5600      256
 153.6000      302
 153.6400      305
 153.6800      309
 153.7200      313
 153.7600      368
 153.8000      334
 153.8400      318
 153.8800      351
 153.9200      370
 153.9600      395
 154.0000      359
 154.0400      375
 154.0800      416
 154.1200      372
 154.1600      416
 154.2000      417
 154.2400      393
 154.2800      438
 154.3200      429
 154.3600      443
 154.4000      438
 154.4400      447
 154.4800      449
 154.5200      457
 154.5600      444
 154.6000      459
 154.6400      451
 154.6800      477
 154.7200      493
 154.7600      465
 154.8000      475
 154.8400      466
 154.8800      468
 154.9200      464
 154.9600      489
 155.0000      467
 155.0400      480
 155.0800      494
 155.1200      507
 155.1600      438
 155.2000      478
 155.2400      426
 155.2800      460
 155.3200      469
 155.3600      448
 155.4000      458
 155.4400      411
 155.4800      445
 155.5200      439
 155.5600      428
 155.6000      424
 155.6400      404
 155.6800      368
 155.7200      378
 155.7600      368
 155.8000      340
 155.8400      359
 155.8800      338
 155.9200      370
 155.9600      378
 156.0000      352
 156.0400      301
 156.0800      322
 156.1200      316
 156.1600      331
 156.2000      318
 156.2400      313
 156.2800      286
 156.3200      311
 156.3600      268
 156.4000      290
 156.4400      261
 156.4800      255
 156.5200      260
 156.5600      229
 156.6000      244
 156.6400      248
 156.6800      228
 156.7200      231
 156.7600      222
 156.8000      219
 156.8400      216
 156.8800      240
 156.9200      203
 156.9600      192
 157.0000      176
 157.0400      194
 157.0800      198
 157.1200      185
 157.1600      194
 157.2000      173
 157.2400      152
 157.2800      179
 157.3200      169
 157.3600      156
 157.4000      156
 157.4400      140
 157.4800      170
 157.5200      151
 157.5600      142
 157.6000      150
 157.6400      145
 157.6800      126
 157.7200      146
 157.7600      126
 157.8000      118
 157.8400      113
 157.8800      131
 157.9200      116
 157.9600      116
 158.0000      134
 158.0400      119
 158.0800      117
 158.1200      113
 158.1600      125
 158.2000      120
 158.2400      109
 158.2800      100
 158.3200      127
 158.3600      103
 158.4000      103
 158.4400       87
 158.4800       95
 158.5200      105
 158.5600      102
 158.6000      115
 158.6400       89
 158.6800      103
 158.7200       89
 158.7600      104
 158.8000       94
 158.8400      100
 158.8800       77
 158.9200       96
 158.9600       81
 159.0000       93
 159.0400       96
 159.0800       97
 159.1200       87
 159.1600       99
 159.2000       96
 159.2400       84
 159.2800       82
 159.3200       80
 159.3600       81
 159.4000       81
 159.4400       70
 159.4800       91
 159.5200       77
 159.5600       77
 159.6000       68
 159.6400       72
 159.6800       75
 159.7200       86
 159.7600       72
 159.8000       71
 159.8400       66
 159.8800       62
 159.9200       80
 159.9600       69
 160.0000       74

File: SDD_sample_name_001_Psi-20_20180528-074540.txt
 150.0000       64
 150.0400       63
 150.0800       67
 150.1200       76
 150.1600       68
 150.2000       86
 150.2400       70
 150.2800       55
 150.3200       70
 150.3600       65
 150.4000       60
 150.4400       63
 150.4800       68
 150.5200       84
 150.5600       64
 150.6000       76
 150.6400       73
 150.6800       77
 150.7200       73
 150.7600       57
 150.8000       81
 150.8400       65
 150.8800       77
 150.9200       75
 150.9600       84
 151.0000       79
 151.0400       70
 151.0800       90
 151.1200       85
 151.1600       91
 151.2000       79
 151.2400       82
 151.2800       74
 151.3200       85
 151.3600       86
 151.4000       85
 151.4400       86
 151.4800       96
 151.5200       98
 151.5600       69
 151.6000       84
 151.6400      105
 151.6800       90
 151.7200       91
 151.7600       97
 151.8000       94
 151.8400       99
 151.8800      109
 151.9200       94
 151.9600      115
 152.0000      104
 152.0400       90
 152.0800       85
 152.1200      118
 152.1600      108
 152.2000      111
 152.2400      114
 152.2800      128
 152.3200      114
 152.3600      140
 152.4000      125
 152.4400      127
 152.4800      133
 152.5200      129
 152.5600      124
 152.6000      144
 152.6400      135
 152.6800      137
 152.7200      148
 152.7600      156
 152.8000      147
 152.8400      149
 152.8800      156
 152.9200      176
 152.9600      172
 153.0000      180
 153.0400      177
 153.0800      193
 153.1200      171
 153.1600      196
 153.2000      216
 153.2400      200
 153.2800      225
 153.3200      212
 153.3600      227
 153.4000      228
 153.4400      233
 153.4800      252
 153.5200      254
 153.5600      275
 153.6000      252
 153.6400      287
 153.6800      277
 153.7200      313
 153.7600      312
 153.8000      319
 153.8400      340
 153.8800      318
 153.9200      353
 153.9600      392
 154.0000      365
 154.0400      380
 154.0800      386
 154.1200      370
 154.1600      397
 154.2000      381
 154.2400      407
 154.2800      409
 154.3200      413
 154.3600      430
 154.4000      422
 154.4400      440
 154.4800      449
 154.5200      397
 154.5600      453
 154.6000      452
 154.6400      457
 154.6800      476
 154.7200      477
 154.7600      478
 154.8000      445
 154.8400      488
 154.8800      454
 154.9200      475
 154.9600      467
 155.0000      473
 155.0400      477
 155.0800      482
 155.1200      486
 155.1600      445
 155.2000      487
 155.2400      425
 155.2800      420
 155.3200      466
 155.3600      453
 155.4000      438
 155.4400      456
 155.4800      432
 155.5200      419
 155.5600      407
 155.6000      388
 155.6400      403
 155.6800      401
 155.7200      417
 155.7600      398
 155.8000      362
 155.8400      366
 155.8800      397
 155.9200      327
 155.9600      380
 156.0000      329
 156.0400      313
 156.0800      355
 156.1200      326
 156.1600      310
 156.2000      317
 156.2400      283
 156.2800      261
 156.3200      308
 156.3600      296
 156.4000      274
 156.4400      269
 156.4800      277
 156.5200      247
 156.5600      263
 156.6000      265
 156.6400      247
 156.6800      267
 156.7200      234
 156.7600      251
 156.8000      196
 156.8400      225
 156.8800      217
 156.9200      215
 156.9600      214
 157.0000      208
 157.0400      194
 157.0800      204
 157.1200      198
 157.1600      182
 157.2000      166
 157.2400      194
 157.2800      181
 157.3200      198
 157.3600      178
 157.4000      166
 157.4400      162
 157.4800      156
 157.5200      142
 157.5600      156
 157.6000      151
 157.6400      155
 157.6800      153
 157.7200      144
 157.7600      136
 157.8000      154
 157.8400      133
 157.8800      110
 157.9200      115
 157.9600      116
 158.0000      124
 158.0400      128
 158.0800      139
 158.1200      144
 158.1600      125
 158.2000      112
 158.2400      112
 158.2800      104
 158.3200      111
 158.3600      111
 158.4000      103
 158.4400      100
 158.4800      100
 158.5200      103
 158.5600       99
 158.6000      102
 158.6400       99
 158.6800       96
 158.7200       98
 158.7600       91
 158.8000       77
 158.8400       92
 158.8800       87
 158.9200       79
 158.9600      101
 159.0000       90
 159.0400       94
 159.0800       85
 159.1200       85
 159.1600       77
 159.2000       90
 159.2400       81
 159.2800       94
 159.3200       83
 159.3600       91
 159.4000       69
 159.4400       84
 159.4800       82
 159.5200       53
 159.5600       79
 159.6000       75
 159.6400       88
 159.6800       67
 159.7200       93
 159.7600       82
 159.8000       83
 159.8400       85
 159.8800       69
 159.9200       86
 159.9600       69
 160.0000       54

File: SDD_sample_name_001_Psi-30_20180528-025224.txt
 150.0000       62
 150.0400       44
 150.0800       82
 150.1200       64
 150.1600       63
 150.2000       61
 150.2400       56
 150.2800       76
 150.3200       72
 150.3600       68
 150.4000       53
 150.4400       60
 150.4800       65
 150.5200       83
 150.5600       56
 150.6000       59
 150.6400       62
 150.6800       69
 150.7200       56
 150.7600       74
 150.8000       76
 150.8400       58
 150.8800       68
 150.9200       69
 150.9600       79
 151.0000       70
 151.0400       68
 151.0800       72
 151.1200       70
 151.1600       75
 151.2000       60
 151.2400       77
 151.2800       89
 151.3200       78
 151.3600       85
 151.4000       80
 151.4400       92
 151.4800       73
 151.5200       91
 151.5600       86
 151.6000       83
 151.6400       71
 151.6800       91
 151.7200       94
 151.7600       94
 151.8000       86
 151.8400       94
 151.8800       94
 151.9200       87
 151.9600      104
 152.0000       88
 152.0400       86
 152.0800      100
 152.1200      106
 152.1600      111
 152.2000      106
 152.2400       96
 152.2800      108
 152.3200       98
 152.3600      107
 152.4000      110
 152.4400      110
 152.4800      120
 152.5200       95
 152.5600      137
 152.6000      142
 152.6400      130
 152.6800      118
 152.7200      126
 152.7600      125
 152.8000      138
 152.8400      155
 152.8800      128
 152.9200      158
 152.9600      159
 153.0000      167
 153.0400      164
 153.0800      174
 153.1200      148
 153.1600      170
 153.2000      207
 153.2400      173
 153.2800      206
 153.3200      195
 153.3600      182
 153.4000      218
 153.4400      207
 153.4800      218
 153.5200      221
 153.5600      215
 153.6000      246
 153.6400      257
 153.6800      228
 153.7200      246
 153.7600      276
 153.8000      289
 153.8400      269
 153.8800      267
 153.9200      275
 153.9600      307
 154.0000      296
 154.0400      297
 154.0800      306
 154.1200      298
 154.1600      350
 154.2000      339
 154.2400      344
 154.2800      344
 154.3200      368
 154.3600      368
 154.4000      386
 154.4400      370
 154.4800      379
 154.5200      396
 154.5600      424
 154.6000      399
 154.6400      378
 154.6800      403
 154.7200      395
 154.7600      436
 154.8000      425
 154.8400      442
 154.8800      476
 154.9200      435
 154.9600      424
 155.0000      445
 155.0400      455
 155.0800      440
 155.1200      438
 155.1600      464
 155.2000      438
 155.2400      428
 155.2800      428
 155.3200      402
 155.3600      424
 155.4000      444
 155.4400      469
 155.4800      408
 155.5200      427
 155.5600      392
 155.6000      422
 155.6400      392
 155.6800      394
 155.7200      383
 155.7600      382
 155.8000      382
 155.8400      364
 155.8800      365
 155.9200      339
 155.9600      385
 156.0000      348
 156.0400      372
 156.0800      326
 156.1200      349
 156.1600      342
 156.2000      336
 156.2400      343
 156.2800      347
 156.3200      278
 156.3600      302
 156.4000      280
 156.4400      286
 156.4800      280
 156.5200      275
 156.5600      266
 156.6000      257
 156.6400      267
 156.6800      273
 156.7200      242
 156.7600      244
 156.8000      211
 156.8400      248
 156.8800      214
 156.9200      213
 156.9600      212
 157.0000      208
 157.0400      227
 157.0800      214
 157.1200      205
 157.1600      186
 157.2000      189
 157.2400      201
 157.2800      181
 157.3200      193
 157.3600      177
 157.4000      178
 157.4400      153
 157.4800      184
 157.5200      177
 157.5600      171
 157.6000      168
 157.6400      150
 157.6800      155
 157.7200      173
 157.7600      141
 157.8000      165
 157.8400      130
 157.8800      112
 157.9200      130
 157.9600      112
 158.0000      136
 158.0400      107
 158.0800      117
 158.1200      124
 158.1600      142
 158.2000      121
 158.2400      120
 158.2800      102
 158.3200      129
 158.3600      114
 158.4000       98
 158.4400      111
 158.4800      132
 158.5200      134
 158.5600      106
 158.6000      110
 158.6400      131
 158.6800      110
 158.7200      110
 158.7600      102
 158.8000       97
 158.8400       97
 158.8800       88
 158.9200       87
 158.9600      100
 159.0000       96
 159.0400       96
 159.0800       99
 159.1200      105
 159.1600       77
 159.2000       92
 159.2400       79
 159.2800      101
 159.3200       83
 159.3600       80
 159.4000       74
 159.4400       85
 159.4800       92
 159.5200       99
 159.5600       69
 159.6000       76
 159.6400       79
 159.6800       71
 159.7200       86
 159.7600       85
 159.8000       88
 159.8400       82
 159.8800       79
 159.9200       83
 159.9600       76
 160.0000       61

File: SDD_sample_name_001_Psi-30_20180528-050523.txt
 150.0000       45
 150.0400       61
 150.0800       62
 150.1200       60
 150.1600       71
 150.2000       75
 150.2400       75
 150.2800       62
 150.3200       56
 150.3600       71
 150.4000       79
 150.4400       75
 150.4800       80
 150.5200       72
 150.5600       78
 150.6000       76
 150.6400       88
 150.6800       72
 150.7200       68
 150.7600       86
 150.8000       90
 150.8400       65
 150.8800       74
 150.9200       69
 150.9600       70
 151.0000       73
 151.0400       88
 151.0800       84
 151.1200       64
 151.1600       80
 151.2000       74
 151.2400       77
 151.2800       83
 151.3200       77
 151.3600       87
 151.4000       98
 151.4400       78
 151.4800       85
 151.5200       80
 151.5600       95
 151.6000      107
 151.6400      104
 151.6800       84
 151.7200       86
 151.7600       84
 151.8000       94
 151.8400       77
 151.8800       99
 151.9200      100
 151.9600      103
 152.0000       90
 152.0400      117
 152.0800      108
 152.1200      105
 152.1600      121
 152.2000      119
 152.2400      126
 152.2800      118
 152.3200      105
 152.3600      107
 152.4000      117
 152.4400      138
 152.4800      115
 152.5200      133
 152.5600      115
 152.6000      152
 152.6400      129
 152.6800      152
 152.7200      150
 152.7600      154
 152.8000      157
 152.8400      154
 152.8800      155
 152.9200      152
 152.9600      170
 153.0000      166
 153.0400      154
 153.0800      153
 153.1200      187
 153.1600      213
 153.2000      156
 153.2400      174
 153.2800      198
 153.3200      204
 153.3600      192
 153.4000      184
 153.4400      212
 153.4800      206
 153.5200      238
 153.5600      246
 153.6000      236
 153.6400      262
 153.6800      256
 153.7200      248
 153.7600      275
 153.8000      267
 153.8400      303
 153.8800      262
 153.9200      289
 153.9600      288
 154.0000      302
 154.0400      330
 154.0800      330
 154.1200      319
 154.1600      359
 154.2000      347
 154.2400      361
 154.2800      377
 154.3200      373
 154.3600      386
 154.4000      352
 154.4400      372
 154.4800      387
 154.5200      397
 154.5600      461
 154.6000      403
 154.6400      429
 154.6800      390
 154.7200      444
 154.7600      431
 154.8000      440
 154.8400      423
 154.8800      450
 154.9200      421
 154.9600      443
 155.0000      449
 155.0400      447
 155.0800      473
 155.1200      425
 155.1600      450
 155.2000      453
 155.2400      449
 155.2800      415
 155.3200      465
 155.3600      411
 155.4000      444
 155.4400      416
 155.4800      414
 155.5200      386
 155.5600      464
 155.6000      394
 155.6400      391
 155.6800      408
 155.7200      372
 155.7600      389
 155.8000      389
 155.8400      386
 155.8800      368
 155.9200      339
 155.9600      419
 156.0000      387
 156.0400      314
 156.0800      360
 156.1200      350
 156.1600      326
 156.2000      318
 156.2400      302
 156.2800      285
 156.3200      287
 156.3600      292
 156.4000      314
 156.4400      272
 156.4800      301
 156.5200      249
 156.5600      299
 156.6000      267
 156.6400      257
 156.6800      270
 156.7200      230
 156.7600      226
 156.8000      257
 156.8400      248
 156.8800      239
 156.9200      225
 156.9600      232
 157.0000      201
 157.0400      215
 157.0800      205
 157.1200      214
 157.1600      180
 157.2000      197
 157.2400      184
 157.2800      176
 157.3200      178
 157.3600      178
 157.4000      160
 157.4400      174
 157.4800      186
 157.5200      149
 157.5600      154
 157.6000      160
 157.6400      145
 157.6800      129
 157.7200      160
 157.7600      156
 157.8000      155
 157.8400      154
 157.8800      151
 157.9200      133
 157.9600      136
 158.0000      126
 158.0400      124
 158.0800      141
 158.1200      142
 158.1600      126
 158.2000      120
 158.2400      139
 158.2800      121
 158.3200      120
 158.3600       94
 158.4000      117
 158.4400      106
 158.4800      110
 158.5200      125
 158.5600      103
 158.6000      101
 158.6400      118
 158.6800      119
 158.7200      106
 158.7600      100
 158.8000       98
 158.8400      112
 158.8800       88
 158.9200       85
 158.9600      109
 159.0000      105
 159.0400      103
 159.0800       76
 159.1200       92
 159.1600       94
 159.2000      106
 159.2400       87
 159.2800      109
 159.3200       94
 159.3600       93
 159.4000       95
 159.4400       84
 159.4800       99
 159.5200       75
 159.5600       92
 159.6000       80
 159.6400       89
 159.6800       89
 159.7200       74
 159.7600      100
 159.8000       90
 159.8400       78
 159.8800       86
 159.9200       72
 159.9600       70
 160.0000       87