Folder: xrd/XRD_Tool/XRD_Tool/bin/Debug (part 26)

File: SDD_sample_name_01234_Psi-30_20180527-115902.txt
 147.5000       53
 147.5200       55
 147.5400       47
 147.5600       53
 147.5800       51
 147.6000       46
 147.6200       29
 147.6400       46
 147.6600       53
 147.6800       54
 147.7000       40
 147.7200       54
 147.7400       43
 147.7600       56
 147.7800       46
 147.8000       55
 147.8200       66
 147.8400       46
 147.8600       56
 147.8800       53
 147.9000       53
 147.9200       57
 147.9400       59
 147.9600       58
 147.9800       56
 148.0000       55
 148.0200       54
 148.0400       44
 148.0600       42
 148.0800       46
 148.1000       49
 148.1200       48
 148.1400       59
 148.1600       48
 148.1800       44
 148.2000       50
 148.2200       57
 148.2400       58
 148.2600       45
 148.2800       52
 148.3000       55
 148.3200       48
 148.3400       59
 148.3600       58
 148.3800       53
 148.4000       53
 148.4200       57
 148.4400       44
 148.4600       53
 148.4800       53
 148.5000       48
 148.5200       50
 148.5400       54
 148.5600       48
 148.5800       54
 148.6000       60
 148.6200       53
 148.6400       61
 148.6600       52
 148.6800       54
 148.7000       50
 148.7200       50
 148.7400       49
 148.7600       59
 148.7800       48
 148.8000       56
 148.8200       59
 148.8400       51
 148.8600       50
 148.8800       54
 148.9000       56
 148.9200       56
 148.9400       62
 148.9600       52
 148.9800       62
 149.0000       73
 149.0200       64
 149.0400       69
 149.0600       53
 149.0800       68
 149.1000       56
 149.1200       58
 149.1400       55
 149.1600       59
 149.1800       58
 149.2000       62
 149.2200       50
 149.2400       62
 149.2600       65
 149.2800       60
 149.3000       34
 149.3200       66
 149.3400       49
 149.3600       51
 149.3800       59
 149.4000       65
 149.4200       55
 149.4400       60
 149.4600       68
 149.4800       52
 149.5000       55
 149.5200       56
 149.5400       56
 149.5600       75
 149.5800       63
 149.6000       71
 149.6200       55
 149.6400       65
 149.6600       60
 149.6800       61
 149.7000       50
 149.7200       57
 149.7400       59
 149.7600       45
 149.7800       57
 149.8000       76
 149.8200       49
 149.8400       63
 149.8600       59
 149.8800       65
 149.9000       48
 149.9200       71
 149.9400       74
 149.9600       62
 149.9800       57
 150.0000       60
 150.0200       57
 150.0400       65
 150.0600       63
 150.0800       63
 150.1000       58
 150.1200       74
 150.1400       79
 150.1600       62
 150.1800       62
 150.2000       49
 150.2200       54
 150.2400       54
 150.2600       59
 150.2800       63
 150.3000       67
 150.3200       70
 150.3400       66
 150.3600       61
 150.3800       63
 150.4000       76
 150.4200       61
 150.4400       74
 150.4600       63
 150.4800       83
 150.5000       78
 150.5200       54
 150.5400       56
 150.5600       76
 150.5800       58
 150.6000       66
 150.6200       71
 150.6400       72
 150.6600       75
 150.6800       70
 150.7000       68
 150.7200       64
 150.7400       68
 150.7600       62
 150.7800       77
 150.8000       81
 150.8200       82
 150.8400       68
 150.8600       73
 150.8800       65
 150.9000       69
 150.9200       71
 150.9400       74
 150.9600       62
 150.9800       56
 151.0000       60
 151.0200       60
 151.0400       71
 151.0600       84
 151.0800       83
 151.1000       84
 151.1200       85
 151.1400       91
 151.1600       73
 151.1800       77
 151.2000       82
 151.2200       96
 151.2400       77
 151.2600       92
 151.2800       88
 151.3000       91
 151.3200       69
 151.3400       93
 151.3600       82
 151.3800       79
 151.4000       87
 151.4200       71
 151.4400       85
 151.4600       79
 151.4800       79
 151.5000       70
 151.5200       84
 151.5400       71
 151.5600       89
 151.5800       83
 151.6000       76
 151.6200       85
 151.6400       95
 151.6600       94
 151.6800       76
 151.7000       84
 151.7200       88
 151.7400       60
 151.7600      100
 151.7800      105
 151.8000       92
 151.8200      103
 151.8400       81
 151.8600       84
 151.8800      104
 151.9000      108
 151.9200      104
 151.9400       88
 151.9600       92
 151.9800      116
 152.0000      115
 152.0200      106
 152.0400       89
 152.0600       81
 152.0800      116
 152.1000       99
 152.1200      108
 152.1400      100
 152.1600      102
 152.1800      112
 152.2000      105
 152.2200      107
 152.2400      127
 152.2600      114
 152.2800       99
 152.3000      102
 152.3200      112
 152.3400      114
 152.3600      109
 152.3800      103
 152.4000      134
 152.4200      118
 152.4400      133
 152.4600      110
 152.4800      123
 152.5000      114

File: SDD_sample_name_01234_Psi-30_20180527-124026.txt
 147.5000       45
 147.5200       50
 147.5400       58
 147.5600       49
 147.5800       72
 147.6000       43
 147.6200       49
 147.6400       49
 147.6600       43
 147.6800       58
 147.7000       48
 147.7200       46
 147.7400       48
 147.7600       58
 147.7800       44
 147.8000       45
 147.8200       50
 147.8400       43
 147.8600       62
 147.8800       52
 147.9000       41
 147.9200       67
 147.9400       52
 147.9600       54
 147.9800       42
 148.0000       58
 148.0200       49
 148.0400       63
 148.0600       49
 148.0800       52
 148.1000       55
 148.1200       55
 148.1400       47
 148.1600       42
 148.1800       57
 148.2000       49
 148.2200       55
 148.2400       55
 148.2600       51
 148.2800       52
 148.3000       57
 148.3200       58
 148.3400       48
 148.3600       55
 148.3800       50
 148.4000       45
 148.4200       46
 148.4400       53
 148.4600       43
 148.4800       47
 148.5000       48
 148.5200       55
 148.5400       54
 148.5600       57
 148.5800       65
 148.6000       43
 148.6200       39
 148.6400       62
 148.6600       52
 148.6800       46
 148.7000       54
 148.7200       54
 148.7400       57
 148.7600       55
 148.7800       58
 148.8000       59
 148.8200       55
 148.8400       33
 148.8600       59
 148.8800       67
 148.9000       73
 148.9200       57
 148.9400       72
 148.9600       48
 148.9800       57
 149.0000       59
 149.0200       46
 149.0400       53
 149.0600       60
 149.0800       56
 149.1000       48
 149.1200       54
 149.1400       54
 149.1600       56
 149.1800       52
 149.2000       56
 149.2200       54
 149.2400       52
 149.2600       52
 149.2800       58
 149.3000       54
 149.3200       48
 149.3400       62
 149.3600       52
 149.3800       67
 149.4000       64
 149.4200       34
 149.4400       56
 149.4600       54
 149.4800       52
 149.5000       43
 149.5200       54
 149.5400       61
 149.5600       62
 149.5800       60
 149.6000       66
 149.6200       66
 149.6400       59
 149.6600       56
 149.6800       64
 149.7000       62
 149.7200       61
 149.7400       43
 149.7600       59
 149.7800       44
 149.8000       59
 149.8200       63
 149.8400       50
 149.8600       55
 149.8800       51
 149.9000       67
 149.9200       54
 149.9400       63
 149.9600       51
 149.9800       52
 150.0000       57
 150.0200       65
 150.0400       51
 150.0600       43
 150.0800       70
 150.1000       78
 150.1200       55
 150.1400       55
 150.1600       47
 150.1800       53
 150.2000       68
 150.2200       42
 150.2400       66
 150.2600       57
 150.2800       53
 150.3000       65
 150.3200       53
 150.3400       75
 150.3600       72
 150.3800       67
 150.4000       67
 150.4200       69
 150.4400       79
 150.4600       72
 150.4800       70
 150.5000       72
 150.5200       95
 150.5400       63
 150.5600       78
 150.5800       51
 150.6000       75
 150.6200       61
 150.6400       76
 150.6600       76
 150.6800       73
 150.7000       59
 150.7200       68
 150.7400       66
 150.7600       74
 150.7800       67
 150.8000       71
 150.8200       66
 150.8400       68
 150.8600       66
 150.8800       77
 150.9000       76
 150.9200       75
 150.9400       57
 150.9600       60
 150.9800       78
 151.0000       68
 151.0200       67
 151.0400       74
 151.0600       60
 151.0800       65
 151.1000       68
 151.1200       70
 151.1400       77
 151.1600       86
 151.1800       81
 151.2000       74
 151.2200       70
 151.2400       73
 151.2600       84
 151.2800       80
 151.3000       73
 151.3200       86
 151.3400       83
 151.3600       74
 151.3800       76
 151.4000       92
 151.4200       72
 151.4400       87
 151.4600       96
 151.4800       80
 151.5000       79
 151.5200       70
 151.5400       81
 151.5600      107
 151.5800       79
 151.6000       90
 151.6200       72
 151.6400       93
 151.6600       96
 151.6800      102
 151.7000       66
 151.7200       82
 151.7400      110
 151.7600       86
 151.7800       74
 151.8000       94
 151.8200       83
 151.8400       90
 151.8600       85
 151.8800       81
 151.9000       96
 151.9200       90
 151.9400       80
 151.9600      105
 151.9800       91
 152.0000       95
 152.0200       92
 152.0400      103
 152.0600      105
 152.0800      109
 152.1000      105
 152.1200      110
 152.1400      112
 152.1600      107
 152.1800       85
 152.2000      107
 152.2200      113
 152.2400      102
 152.2600       90
 152.2800      115
 152.3000      114
 152.3200      100
 152.3400      127
 152.3600      110
 152.3800       97
 152.4000      120
 152.4200       95
 152.4400      107
 152.4600      108
 152.4800      126
 152.5000      129

File: SDD_sample_name_01234_Psi-30_20180527-124048.txt
 147.5000       59
 147.5200       49
 147.5400       46
 147.5600       55
 147.5800       54
 147.6000       35
 147.6200       56
 147.6400       55
 147.6600       49
 147.6800       55
 147.7000       55
 147.7200       64
 147.7400       58
 147.7600       54
 147.7800       54
 147.8000       62
 147.8200       54
 147.8400       42
 147.8600       56
 147.8800       62
 147.9000       44
 147.9200       59
 147.9400       56
 147.9600       50
 147.9800       63
 148.0000       51
 148.0200       52
 148.0400       43
 148.0600       58
 148.0800       52
 148.1000       60
 148.1200       65
 148.1400       54
 148.1600       45
 148.1800       53
 148.2000       64
 148.2200       57
 148.2400       61
 148.2600       53
 148.2800       54
 148.3000       52
 148.3200       56
 148.3400       59
 148.3600       58
 148.3800       52
 148.4000       53
 148.4200       52
 148.4400       55
 148.4600       62
 148.4800       67
 148.5000       68
 148.5200       45
 148.5400       55
 148.5600       62
 148.5800       51
 148.6000       58
 148.6200       59
 148.6400       63
 148.6600       42
 148.6800       45
 148.7000       57
 148.7200       67
 148.7400       44
 148.7600       39
 148.7800       51
 148.8000       60
 148.8200       49
 148.8400       57
 148.8600       52
 148.8800       50
 148.9000       58
 148.9200       73
 148.9400       55
 148.9600       45
 148.9800       58
 149.0000       75
 149.0200       60
 149.0400       45
 149.0600       55
 149.0800       57
 149.1000       70
 149.1200       62
 149.1400       64
 149.1600       54
 149.1800       57
 149.2000       61
 149.2200       61
 149.2400       59
 149.2600       66
 149.2800       52
 149.3000       54
 149.3200       67
 149.3400       38
 149.3600       65
 149.3800       44
 149.4000       66
 149.4200       55
 149.4400       57
 149.4600       67
 149.4800       75
 149.5000       52
 149.5200       61
 149.5400       60
 149.5600       64
 149.5800       69
 149.6000       65
 149.6200       61
 149.6400       61
 149.6600       72
 149.6800       67
 149.7000       83
 149.7200       62
 149.7400       58
 149.7600       47
 149.7800       53
 149.8000       70
 149.8200       60
 149.8400       53
 149.8600       60
 149.8800       60
 149.9000       62
 149.9200       47
 149.9400       67
 149.9600       59
 149.9800       49
 150.0000       54
 150.0200       56
 150.0400       63
 150.0600       67
 150.0800       59
 150.1000       57
 150.1200       60
 150.1400       59
 150.1600       66
 150.1800       56
 150.2000       53
 150.2200       56
 150.2400       58
 150.2600       69
 150.2800       73
 150.3000       58
 150.3200       75
 150.3400       62
 150.3600       64
 150.3800       81
 150.4000       82
 150.4200       67
 150.4400       56
 150.4600       48
 150.4800       65
 150.5000       67
 150.5200       59
 150.5400       67
 150.5600       62
 150.5800       68
 150.6000       62
 150.6200       53
 150.6400       69
 150.6600       57
 150.6800       64
 150.7000       61
 150.7200       68
 150.7400       77
 150.7600       82
 150.7800       94
 150.8000       71
 150.8200       70
 150.8400       75
 150.8600       80
 150.8800       74
 150.9000       71
 150.9200       80
 150.9400       59
 150.9600       70
 150.9800       61
 151.0000       75
 151.0200       75
 151.0400       88
 151.0600       79
 151.0800       77
 151.1000       84
 151.1200       73
 151.1400       70
 151.1600       78
 151.1800       83
 151.2000       68
 151.2200       74
 151.2400       79
 151.2600       79
 151.2800       75
 151.3000       74
 151.3200       84
 151.3400       77
 151.3600       85
 151.3800       89
 151.4000       66
 151.4200       86
 151.4400       85
 151.4600       78
 151.4800       83
 151.5000      101
 151.5200       82
 151.5400       62
 151.5600       89
 151.5800       92
 151.6000       81
 151.6200       75
 151.6400       78
 151.6600      102
 151.6800       98
 151.7000       86
 151.7200       78
 151.7400       94
 151.7600       82
 151.7800       96
 151.8000       80
 151.8200       90
 151.8400       97
 151.8600       90
 151.8800      111
 151.9000       98
 151.9200       89
 151.9400       95
 151.9600       98
 151.9800       96
 152.0000       79
 152.0200       92
 152.0400      111
 152.0600       86
 152.0800       90
 152.1000      112
 152.1200      116
 152.1400       91
 152.1600       96
 152.1800      112
 152.2000      109
 152.2200      122
 152.2400      109
 152.2600      110
 152.2800      127
 152.3000      115
 152.3200      115
 152.3400      103
 152.3600      108
 152.3800      109
 152.4000      119
 152.4200      121
 152.4400      134
 152.4600      110
 152.4800      133
 152.5000      137

File: SDD_sample_name_01234_Psi-30_20180527-125245.txt
 147.5000       57
 147.5200       46
 147.5400       47
 147.5600       54
 147.5800       44
 147.6000       50
 147.6200       50
 147.6400       49
 147.6600       57
 147.6800       49
 147.7000       70
 147.7200       42
 147.7400       59
 147.7600       55
 147.7800       55
 147.8000       46
 147.8200       50
 147.8400       64
 147.8600       50
 147.8800       50
 147.9000       52
 147.9200       62
 147.9400       60
 147.9600       50
 147.9800       45
 148.0000       53
 148.0200       50
 148.0400       48
 148.0600       53
 148.0800       45
 148.1000       49
 148.1200       56
 148.1400       53
 148.1600       50
 148.1800       51
 148.2000       50
 148.2200       62
 148.2400       61
 148.2600       49
 148.2800       58
 148.3000       49
 148.3200       50
 148.3400       50
 148.3600       55
 148.3800       67
 148.4000       61
 148.4200       58
 148.4400       52
 148.4600       50
 148.4800       60
 148.5000       48
 148.5200       58
 148.5400       57
 148.5600       66
 148.5800       40
 148.6000       45
 148.6200       53
 148.6400       59
 148.6600       52
 148.6800       44
 148.7000       45
 148.7200       69
 148.7400       64
 148.7600       44
 148.7800       60
 148.8000       48
 148.8200       59
 148.8400       65
 148.8600       35
 148.8800       70
 148.9000       59
 148.9200       69
 148.9400       54
 148.9600       64
 148.9800       46
 149.0000       59
 149.0200       59
 149.0400       69
 149.0600       51
 149.0800       50
 149.1000       40
 149.1200       66
 149.1400       70
 149.1600       69
 149.1800       55
 149.2000       63
 149.2200       55
 149.2400       45
 149.2600       48
 149.2800       71
 149.3000       64
 149.3200       54
 149.3400       61
 149.3600       56
 149.3800       47
 149.4000       50
 149.4200       46
 149.4400       56
 149.4600       45
 149.4800       53
 149.5000       55
 149.5200       59
 149.5400       56
 149.5600       50
 149.5800       57
 149.6000       51
 149.6200       56
 149.6400       50
 149.6600       58
 149.6800       54
 149.7000       52
 149.7200       58
 149.7400       65
 149.7600       64
 149.7800       62
 149.8000       59
 149.8200       58
 149.8400       63
 149.8600       51
 149.8800       61
 149.9000       68
 149.9200       55
 149.9400       58
 149.9600       57
 149.9800       56
 150.0000       58
 150.0200       58
 150.0400       57
 150.0600       55
 150.0800       59
 150.1000       61
 150.1200       80
 150.1400       56
 150.1600       54
 150.1800       72
 150.2000       64
 150.2200       65
 150.2400       71
 150.2600       57
 150.2800       53
 150.3000       62
 150.3200       67
 150.3400       73
 150.3600       61
 150.3800       58
 150.4000       62
 150.4200       61
 150.4400       58
 150.4600       73
 150.4800       61
 150.5000       64
 150.5200       72
 150.5400       73
 150.5600       70
 150.5800       57
 150.6000       66
 150.6200       73
 150.6400       84
 150.6600       64
 150.6800       62
 150.7000       56
 150.7200       80
 150.7400       76
 150.7600       71
 150.7800       64
 150.8000       67
 150.8200       75
 150.8400       59
 150.8600       78
 150.8800       61
 150.9000       66
 150.9200       78
 150.9400       96
 150.9600       92
 150.9800       68
 151.0000       67
 151.0200       95
 151.0400       62
 151.0600       76
 151.0800       76
 151.1000       88
 151.1200       79
 151.1400       74
 151.1600       80
 151.1800       68
 151.2000       55
 151.2200       58
 151.2400       70
 151.2600       83
 151.2800       83
 151.3000       78
 151.3200       93
 151.3400       76
 151.3600       83
 151.3800       81
 151.4000       79
 151.4200       82
 151.4400      107
 151.4600       73
 151.4800       71
 151.5000       87
 151.5200       86
 151.5400       84
 151.5600       86
 151.5800       84
 151.6000       90
 151.6200       93
 151.6400       80
 151.6600       94
 151.6800       70
 151.7000       86
 151.7200       77
 151.7400      107
 151.7600      114
 151.7800       83
 151.8000       73
 151.8200      106
 151.8400       77
 151.8600       82
 151.8800       81
 151.9000       85
 151.9200       87
 151.9400       76
 151.9600       91
 151.9800      105
 152.0000       90
 152.0200       99
 152.0400       97
 152.0600      101
 152.0800      104
 152.1000       92
 152.1200       97
 152.1400      100
 152.1600      107
 152.1800      110
 152.2000      108
 152.2200      119
 152.2400      126
 152.2600      135
 152.2800      105
 152.3000      126
 152.3200      112
 152.3400      127
 152.3600      108
 152.3800      112
 152.4000      115
 152.4200      146
 152.4400      122
 152.4600      126
 152.4800      125
 152.5000      117

File: SDD_sample_name_01234_Psi-30_20180527-125307.txt
 147.5000       59
 147.5200       50
 147.5400       54
 147.5600       37
 147.5800       52
 147.6000       51
 147.6200       62
 147.6400       49
 147.6600       54
 147.6800       56
 147.7000       55
 147.7200       57
 147.7400       34
 147.7600       38
 147.7800       57
 147.8000       56
 147.8200       56
 147.8400       48
 147.8600       47
 147.8800       61
 147.9000       43
 147.9200       67
 147.9400       50
 147.9600       41
 147.9800       60
 148.0000       54
 148.0200       65
 148.0400       56
 148.0600       55
 148.0800       55
 148.1000       39
 148.1200       56
 148.1400       40
 148.1600       54
 148.1800       68
 148.2000       52
 148.2200       57
 148.2400       43
 148.2600       55
 148.2800       51
 148.3000       62
 148.3200       56
 148.3400       39
 148.3600       51
 148.3800       55
 148.4000       51
 148.4200       53
 148.4400       49
 148.4600       57
 148.4800       59
 148.5000       68
 148.5200       56
 148.5400       51
 148.5600       52
 148.5800       53
 148.6000       71
 148.6200       51
 148.6400       55
 148.6600       76
 148.6800       43
 148.7000       49
 148.7200       53
 148.7400       50
 148.7600       72
 148.7800       54
 148.8000       61
 148.8200       57
 148.8400       69
 148.8600       51
 148.8800       44
 148.9000       47
 148.9200       49
 148.9400       51
 148.9600       45
 148.9800       56
 149.0000       65
 149.0200       69
 149.0400       64
 149.0600       47
 149.0800       48
 149.1000       55
 149.1200       55
 149.1400       49
 149.1600       54
 149.1800       61
 149.2000       38
 149.2200       55
 149.2400       53
 149.2600       54
 149.2800       50
 149.3000       47
 149.3200       64
 149.3400       53
 149.3600       51
 149.3800       63
 149.4000       64
 149.4200       59
 149.4400       50
 149.4600       54
 149.4800       65
 149.5000       65
 149.5200       63
 149.5400       63
 149.5600       71
 149.5800       55
 149.6000       52
 149.6200       60
 149.6400       62
 149.6600       48
 149.6800       52
 149.7000       61
 149.7200       60
 149.7400       68
 149.7600       65
 149.7800       51
 149.8000       55
 149.8200       52
 149.8400       59
 149.8600       75
 149.8800       67
 149.9000       59
 149.9200       71
 149.9400       68
 149.9600       56
 149.9800       75
 150.0000       51
 150.0200       64
 150.0400       55
 150.0600       64
 150.0800       53
 150.1000       76
 150.1200       58
 150.1400       67
 150.1600       65
 150.1800       69
 150.2000       49
 150.2200       64
 150.2400       73
 150.2600       62
 150.2800       46
 150.3000       68
 150.3200       68
 150.3400       73
 150.3600       63
 150.3800       71
 150.4000       69
 150.4200       60
 150.4400       63
 150.4600       67
 150.4800       55
 150.5000       62
 150.5200       69
 150.5400       61
 150.5600       73
 150.5800       86
 150.6000       63
 150.6200       60
 150.6400       71
 150.6600       63
 150.6800       69
 150.7000       71
 150.7200       53
 150.7400       72
 150.7600       80
 150.7800       66
 150.8000       61
 150.8200       52
 150.8400       60
 150.8600       72
 150.8800       72
 150.9000       66
 150.9200       83
 150.9400       66
 150.9600       78
 150.9800       87
 151.0000       80
 151.0200       77
 151.0400       63
 151.0600       87
 151.0800       63
 151.1000       79
 151.1200       61
 151.1400       71
 151.1600       62
 151.1800       69
 151.2000       74
 151.2200       86
 151.2400       61
 151.2600       64
 151.2800       70
 151.3000       84
 151.3200       74
 151.3400       77
 151.3600       63
 151.3800       66
 151.4000       87
 151.4200       61
 151.4400       75
 151.4600       81
 151.4800       81
 151.5000       76
 151.5200       84
 151.5400       81
 151.5600       78
 151.5800       75
 151.6000       78
 151.6200       93
 151.6400       89
 151.6600      100
 151.6800       86
 151.7000       81
 151.7200       98
 151.7400       82
 151.7600       87
 151.7800       74
 151.8000       86
 151.8200       84
 151.8400       98
 151.8600       78
 151.8800       80
 151.9000       87
 151.9200       90
 151.9400      102
 151.9600       86
 151.9800       79
 152.0000      107
 152.0200      122
 152.0400      108
 152.0600      110
 152.0800       88
 152.1000      102
 152.1200      102
 152.1400       97
 152.1600      119
 152.1800       72
 152.2000      112
 152.2200      106
 152.2400      115
 152.2600      109
 152.2800      102
 152.3000      115
 152.3200      109
 152.3400      129
 152.3600      106
 152.3800       96
 152.4000      125
 152.4200      120
 152.4400      107
 152.4600      110
 152.4800      121
 152.5000      128