Folder: xrd/XRD_Tool/XRD_Tool/bin/Debug (part 6)

File: LDA_sample_name_56789_Psi-0_20180623-000227.txt
141.0000     204
141.0800     306
141.1600     288
141.2400     241
141.3200     193
141.4000     227
141.4800     217
141.5600     152
141.6400     301
141.7200     301
141.8000     241
141.8800     257
141.9600     123
142.0400     294
142.1200     233
142.2000     283
142.2800     232
142.3600     200
142.4400     271
142.5200     183
142.6000     255
142.6800     202
142.7600     202
142.8400     277
142.9200     256
143.0000     135
143.0800     223
143.1600     266
143.2400     255
143.3200     182
143.4000     246
143.4800     282
143.5600     336
143.6400     312
143.7200     219
143.8000     211
143.8800     264
143.9600     265
144.0400     304
144.1200     256
144.2000     361
144.2800     252
144.3600     281
144.4400     335
144.5200     244
144.6000     197
144.6800     199
144.7600     262
144.8400     238
144.9200     318
145.0000     314
145.0800     259
145.1600     377
145.2400     346
145.3200     311
145.4000     354
145.4800     223
145.5600     279
145.6400     222
145.7200     274
145.8000     281
145.8800     375
145.9600     357
146.0400     306
146.1200     375
146.2000     322
146.2800     331
146.3600     333
146.4400     384
146.5200     296
146.6000     375
146.6800     316
146.7600     295
146.8400     422
146.9200     449
147.0000     420
147.0800     315
147.1600     357
147.2400     227
147.3200     349
147.4000     360
147.4800     305
147.5600     355
147.6400     322
147.7200     313
147.8000     358
147.8800     341
147.9600     374
148.0400     390
148.1200     311
148.2000     393
148.2800     359
148.3600     341
148.4400     394
148.5200     368
148.6000     423
148.6800     384
148.7600     446
148.8400     373
148.9200     365
149.0000     288
149.0800     388
149.1600     230
149.2400     351
149.3200     342
149.4000     352
149.4800     419
149.5600     381
149.6400     353
149.7200     390
149.8000     415
149.8800     406
149.9600     319
150.0400     415
150.1200     332
150.2000     460
150.2800     568
150.3600     463
150.4400     607
150.5200     587
150.6000     569
150.6800     468
150.7600     487
150.8400     711
150.9200     566
151.0000     648
151.0800     644
151.1600     657
151.2400     727
151.3200     762
151.4000     713
151.4800     792
151.5600     801
151.6400     670
151.7200     802
151.8000     869
151.8800     999
151.9600     910
152.0400     996
152.1200    1021
152.2000    1089
152.2800    1228
152.3600    1156
152.4400    1300
152.5200    1448
152.6000    1324
152.6800    1430
152.7600    1583
152.8400    1660
152.9200    1792
153.0000    1877
153.0800    1827
153.1600    2120
153.2400    2106
153.3200    2335
153.4000    2337
153.4800    2367
153.5600    2615
153.6400    2601
153.7200    2656
153.8000    2498
153.8800    2664
153.9600    2661
154.0400    2808
154.1200    2660
154.2000    2623
154.2800    2607
154.3600    2582
154.4400    2748
154.5200    2468
154.6000    2564
154.6800    2521
154.7600    2441
154.8400    2148
154.9200    2227
155.0000    2147
155.0800    2140
155.1600    1923
155.2400    1872
155.3200    1743
155.4000    1757
155.4800    1736
155.5600    1612
155.6400    1683
155.7200    1503
155.8000    1495
155.8800    1359
155.9600    1267
156.0400    1256
156.1200    1223
156.2000    1249
156.2800    1035
156.3600    1119
156.4400    1019
156.5200    1013
156.6000     913
156.6800     796
156.7600     846
156.8400     871
156.9200     695
157.0000     707
157.0800     813
157.1600     743
157.2400     820
157.3200     755
157.4000     628
157.4800     667
157.5600     722
157.6400     507
157.7200     545
157.8000     711
157.8800     609
157.9600     568
158.0400     514
158.1200     583
158.2000     544
158.2800     522
158.3600     542
158.4400     527
158.5200     454
158.6000     430
158.6800     597
158.7600     524
158.8400     481
158.9200     468
159.0000     497
159.0800     424
159.1600     355
159.2400     498
159.3200     475
159.4000     364
159.4800     367
159.5600     397
159.6400     403
159.7200     394
159.8000     336
159.8800     441
159.9600     420
160.0400     321
160.1200     437
160.2000     315
160.2800     346
160.3600     390
160.4400     325
160.5200     259
160.6000     374
160.6800     432
160.7600     431
160.8400     423
160.9200     308
161.0000     363
161.0800     385
161.1600     417
161.2400     308
161.3200     371
161.4000     320
161.4800     387
161.5600     315
161.6400     317
161.7200     415
161.8000     292
161.8800     348
161.9600     337
162.0400     212
162.1200     419
162.2000     258
162.2800     458
162.3600     406
162.4400     351
162.5200     288
162.6000     264
162.6800     251
162.7600     268
162.8400     348
162.9200     382
163.0000     359
163.0800     251
163.1600     330
163.2400     282
163.3200     321
163.4000     255
163.4800     201
163.5600     322
163.6400     224
163.7200     314
163.8000     329
163.8800     292
163.9600     279
164.0400     218
164.1200     262
164.2000     350
164.2800     279
164.3600     311
164.4400     327
164.5200     219
164.6000     211
164.6800     278
164.7600     274
164.8400     233
164.9200     252
164.9800     334

File: LDA_sample_name_56789_Psi-0_20180623-000329.txt
141.0000     244
141.0800     246
141.1600      98
141.2400     139
141.3200     262
141.4000     210
141.4800     246
141.5600     197
141.6400     229
141.7200     298
141.8000     138
141.8800     246
141.9600     242
142.0400     182
142.1200     252
142.2000     206
142.2800     175
142.3600     127
142.4400     302
142.5200     197
142.6000     256
142.6800     243
142.7600     196
142.8400     152
142.9200     191
143.0000     191
143.0800     159
143.1600     195
143.2400     233
143.3200     256
143.4000     174
143.4800     306
143.5600     195
143.6400     192
143.7200     184
143.8000     209
143.8800     142
143.9600     250
144.0400     143
144.1200     198
144.2000     200
144.2800     223
144.3600     196
144.4400     338
144.5200     225
144.6000     175
144.6800     256
144.7600     191
144.8400     199
144.9200     214
145.0000     164
145.0800     228
145.1600     188
145.2400     175
145.3200     300
145.4000     223
145.4800     308
145.5600     207
145.6400     315
145.7200     302
145.8000     287
145.8800     253
145.9600     325
146.0400     309
146.1200     249
146.2000     257
146.2800     264
146.3600     236
146.4400     178
146.5200     261
146.6000     277
146.6800     292
146.7600     261
146.8400     298
146.9200     340
147.0000     278
147.0800     287
147.1600     285
147.2400     269
147.3200     293
147.4000     303
147.4800     260
147.5600     271
147.6400     301
147.7200     378
147.8000     322
147.8800     367
147.9600     291
148.0400     329
148.1200     334
148.2000     334
148.2800     304
148.3600     322
148.4400     339
148.5200     433
148.6000     362
148.6800     254
148.7600     296
148.8400     369
148.9200     343
149.0000     321
149.0800     322
149.1600     250
149.2400     348
149.3200     438
149.4000     360
149.4800     276
149.5600     212
149.6400     348
149.7200     294
149.8000     365
149.8800     276
149.9600     327
150.0400     413
150.1200     441
150.2000     460
150.2800     372
150.3600     409
150.4400     459
150.5200     532
150.6000     476
150.6800     516
150.7600     515
150.8400     562
150.9200     487
151.0000     633
151.0800     637
151.1600     536
151.2400     591
151.3200     641
151.4000     683
151.4800     686
151.5600     663
151.6400     806
151.7200     773
151.8000     924
151.8800     779
151.9600     806
152.0400     938
152.1200     844
152.2000     986
152.2800    1120
152.3600    1059
152.4400    1264
152.5200    1368
152.6000    1376
152.6800    1465
152.7600    1634
152.8400    1560
152.9200    1650
153.0000    1848
153.0800    1855
153.1600    2021
153.2400    2095
153.3200    2130
153.4000    2166
153.4800    2409
153.5600    2341
153.6400    2377
153.7200    2696
153.8000    2325
153.8800    2671
153.9600    2638
154.0400    2678
154.1200    2555
154.2000    2663
154.2800    2572
154.3600    2638
154.4400    2653
154.5200    2416
154.6000    2417
154.6800    2455
154.7600    2294
154.8400    2307
154.9200    2130
155.0000    1978
155.0800    2024
155.1600    2012
155.2400    1843
155.3200    1783
155.4000    1731
155.4800    1539
155.5600    1694
155.6400    1514
155.7200    1561
155.8000    1444
155.8800    1343
155.9600    1366
156.0400    1211
156.1200    1226
156.2000    1141
156.2800     952
156.3600    1058
156.4400     907
156.5200     992
156.6000     908
156.6800     885
156.7600     759
156.8400     850
156.9200     890
157.0000     718
157.0800     714
157.1600     791
157.2400     640
157.3200     697
157.4000     654
157.4800     670
157.5600     600
157.6400     523
157.7200     502
157.8000     583
157.8800     545
157.9600     500
158.0400     481
158.1200     384
158.2000     440
158.2800     447
158.3600     500
158.4400     436
158.5200     540
158.6000     463
158.6800     495
158.7600     446
158.8400     450
158.9200     320
159.0000     442
159.0800     342
159.1600     403
159.2400     470
159.3200     377
159.4000     290
159.4800     379
159.5600     334
159.6400     417
159.7200     411
159.8000     362
159.8800     322
159.9600     299
160.0400     326
160.1200     283
160.2000     109
160.2800     328
160.3600     320
160.4400     331
160.5200     223
160.6000     285
160.6800     329
160.7600     412
160.8400     460
160.9200     319
161.0000     234
161.0800     267
161.1600     350
161.2400     252
161.3200     251
161.4000     289
161.4800     291
161.5600     361
161.6400     278
161.7200     245
161.8000     369
161.8800     236
161.9600     233
162.0400     209
162.1200     342
162.2000     350
162.2800     267
162.3600     324
162.4400     347
162.5200     202
162.6000     333
162.6800     324
162.7600     428
162.8400     217
162.9200     307
163.0000     303
163.0800     292
163.1600     222
163.2400     285
163.3200     313
163.4000     174
163.4800     334
163.5600     283
163.6400     246
163.7200     340
163.8000     287
163.8800     287
163.9600     216
164.0400     200
164.1200     163
164.2000     252
164.2800     116
164.3600     291
164.4400     339
164.5200     254
164.6000     269
164.6800     185
164.7600     306
164.8400     175
164.9200     246
164.9800     386

File: LDA_sample_name_56789_Psi-0_20180623-000534.txt
138.0000     299
138.0800     285
138.1600     132
138.2400     241
138.3200     193
138.4000     215
138.4800     169
138.5600     272
138.6400     317
138.7200     297
138.8000     261
138.8800     273
138.9600     296
139.0400     251
139.1200     240
139.2000     259
139.2800     236
139.3600     200
139.4400     200
139.5200     242
139.6000     239
139.6800     266
139.7600     208
139.8400     235
139.9200     262
140.0000     167
140.0800     201
140.1600     281
140.2400     311
140.3200     270
140.4000     363
140.4800     248
140.5600     248
140.6400     264
140.7200     284
140.8000     241
140.8800     187
140.9600     386
141.0400     208
141.1200     269
141.2000     271
141.2800     221
141.3600     300
141.4400     235
141.5200     219
141.6000     299
141.6800     250
141.7600     274
141.8400     210
141.9200     264
142.0000     291
142.0800     303
142.1600     215
142.2400     363
142.3200     327
142.4000     322
142.4800     395
142.5600     271
142.6400     309
142.7200     321
142.8000     293
142.8800     337
142.9600     373
143.0400     283
143.1200     341
143.2000     365
143.2800     329
143.3600     383
143.4400     283
143.5200     213
143.6000     264
143.6800     325
143.7600     270
143.8400     304
143.9200     334
144.0000     323
144.0800     405
144.1600     464
144.2400     282
144.3200     354
144.4000     330
144.4800     320
144.5600     310
144.6400     302
144.7200     383
144.8000     313
144.8800     288
144.9600     343
145.0400     313
145.1200     265
145.2000     297
145.2800     305
145.3600     352
145.4400     315
145.5200     289
145.6000     377
145.6800     347
145.7600     338
145.8400     343
145.9200     202
146.0000     237
146.0800     371
146.1600     411
146.2400     273
146.3200     353
146.4000     293
146.4800     365
146.5600     343
146.6400     247
146.7200     311
146.8000     324
146.8800     337
146.9600     329
147.0400     234
147.1200     319
147.2000     254
147.2800     244
147.3600     385
147.4400     349
147.5200     389
147.6000     429
147.6800     345
147.7600     377
147.8400     410
147.9200     402
148.0000     312
148.0800     286
148.1600     412
148.2400     392
148.3200     378
148.4000     360
148.4800     401
148.5600     382
148.6400     413
148.7200     434
148.8000     327
148.8800     365
148.9600     448
149.0400     299
149.1200     504
149.2000     382
149.2800     365
149.3600     416
149.4400     416
149.5200     431
149.6000     461
149.6800     499
149.7600     435
149.8400     479
149.9200     596
150.0000     488
150.0800     423
150.1600     490
150.2400     359
150.3200     479
150.4000     491
150.4800     497
150.5600     474
150.6400     475
150.7200     487
150.8000     666
150.8800     579
150.9600     468
151.0400     534
151.1200     674
151.2000     633
151.2800     622
151.3600     822
151.4400     792
151.5200     771
151.6000     760
151.6800     818
151.7600     904
151.8400     854
151.9200     875
152.0000     884
152.0800     992
152.1600     972
152.2400    1038
152.3200    1178
152.4000    1181
152.4800    1408
152.5600    1389
152.6400    1390
152.7200    1680
152.8000    1553
152.8800    1861
152.9600    1800
153.0400    1923
153.1200    1944
153.2000    2065
153.2800    2066
153.3600    2260
153.4400    2377
153.5200    2716
153.6000    2508
153.6800    2626
153.7600    2611
153.8400    2701
153.9200    2724
154.0000    2493
154.0800    2524
154.1600    2853
154.2400    2810
154.3200    2553
154.4000    2592
154.4800    2460
154.5600    2669
154.6400    2275
154.7200    2512
154.8000    2228
154.8800    2350
154.9600    2279
155.0400    2069
155.1200    1919
155.2000    2001
155.2800    1788
155.3600    1817
155.4400    1615
155.5200    1736
155.6000    1411
155.6800    1478
155.7600    1314
155.8400    1451
155.9200    1198
156.0000    1414
156.0800    1251
156.1600    1330
156.2400    1139
156.3200     989
156.4000    1089
156.4800    1091
156.5600     943
156.6400     766
156.7200     948
156.8000     735
156.8800     719
156.9600     830
157.0400     726
157.1200     788
157.2000     594
157.2800     722
157.3600     782
157.4400     571
157.5200     535
157.6000     633
157.6800     722
157.7600     654
157.8400     719
157.9200     587
158.0000     655
158.0800     536
158.1600     544
158.2400     602
158.3200     456
158.4000     515
158.4800     544
158.5600     445
158.6400     394
158.7200     483
158.8000     413
158.8800     446
158.9600     420
159.0400     385
159.1200     443
159.2000     425
159.2800     505
159.3600     387
159.4400     449
159.5200     306
159.6000     501
159.6800     338
159.7600     439
159.8400     371
159.9200     329
160.0000     402
160.0800     394
160.1600     345
160.2400     376
160.3200     379
160.4000     363
160.4800     409
160.5600     385
160.6400     286
160.7200     253
160.8000     303
160.8800     313
160.9600     300
161.0400     344
161.1200     260
161.2000     326
161.2800     215
161.3600     291
161.4400     277
161.5200     293
161.6000     315
161.6800     294
161.7600     213
161.8400     210
161.9200     324
161.9800     274

File: LDA_sample_name_56789_Psi-0_20180623-122735.txt
138.0000     277
138.0800     178
138.1600     197
138.2400     270
138.3200     194
138.4000     195
138.4800     288
138.5600     308
138.6400     263
138.7200     178
138.8000     237
138.8800     192
138.9600     169
139.0400     193
139.1200     272
139.2000     208
139.2800     345
139.3600     211
139.4400     297
139.5200     284
139.6000     182
139.6800     196
139.7600     309
139.8400     214
139.9200     221
140.0000     281
140.0800     244
140.1600     288
140.2400     237
140.3200     261
140.4000     307
140.4800     254
140.5600     373
140.6400     281
140.7200     254
140.8000     258
140.8800     309
140.9600     273
141.0400     286
141.1200     267
141.2000     387
141.2800     188
141.3600     319
141.4400     302
141.5200     272
141.6000     215
141.6800     286
141.7600     146
141.8400     262
141.9200     239
142.0000     246
142.0800     218
142.1600     281
142.2400     315
142.3200     365
142.4000     343
142.4800     340
142.5600     284
142.6400     334
142.7200     194
142.8000     297
142.8800     325
142.9600     320
143.0400     351
143.1200     260
143.2000     324
143.2800     323
143.3600     341
143.4400     296
143.5200     256
143.6000     221
143.6800     295
143.7600     342
143.8400     360
143.9200     274
144.0000     387
144.0800     300
144.1600     356
144.2400     344
144.3200     248
144.4000     336
144.4800     352
144.5600     275
144.6400     409
144.7200     425
144.8000     275
144.8800     307
144.9600     252
145.0400     275
145.1200     191
145.2000     346
145.2800     339
145.3600     378
145.4400     319
145.5200     376
145.6000     384
145.6800     356
145.7600     326
145.8400     397
145.9200     278
146.0000     269
146.0800     292
146.1600     394
146.2400     289
146.3200     211
146.4000     307
146.4800     324
146.5600     306
146.6400     317
146.7200     356
146.8000     287
146.8800     371
146.9600     394
147.0400     229
147.1200     345
147.2000     367
147.2800     270
147.3600     305
147.4400     313
147.5200     313
147.6000     270
147.6800     298
147.7600     319
147.8400     369
147.9200     341
148.0000     290
148.0800     382
148.1600     442
148.2400     514
148.3200     433
148.4000     316
148.4800     436
148.5600     405
148.6400     453
148.7200     343
148.8000     284
148.8800     422
148.9600     439
149.0400     382
149.1200     379
149.2000     438
149.2800     475
149.3600     440
149.4400     458
149.5200     484
149.6000     474
149.6800     475
149.7600     490
149.8400     490
149.9200     484
150.0000     459
150.0800     533
150.1600     418
150.2400     469
150.3200     533
150.4000     522
150.4800     548
150.5600     521
150.6400     504
150.7200     607
150.8000     470
150.8800     638
150.9600     559
151.0400     592
151.1200     601
151.2000     721
151.2800     608
151.3600     686
151.4400     742
151.5200     779
151.6000     665
151.6800     759
151.7600     856
151.8400     909
151.9200     941
152.0000     992
152.0800    1025
152.1600    1008
152.2400     993
152.3200    1097
152.4000    1161
152.4800    1132
152.5600    1550
152.6400    1501
152.7200    1504
152.8000    1591
152.8800    1684
152.9600    1836
153.0400    1732
153.1200    1840
153.2000    2124
153.2800    2108
153.3600    2126
153.4400    2319
153.5200    2189
153.6000    2537
153.6800    2570
153.7600    2727
153.8400    2613
153.9200    2537
154.0000    2512
154.0800    2590
154.1600    2681
154.2400    2506
154.3200    2482
154.4000    2450
154.4800    2502
154.5600    2615
154.6400    2428
154.7200    2416
154.8000    2166
154.8800    2172
154.9600    2247
155.0400    2110
155.1200    1893
155.2000    1791
155.2800    1747
155.3600    1828
155.4400    1642
155.5200    1732
155.6000    1516
155.6800    1376
155.7600    1390
155.8400    1403
155.9200    1304
156.0000    1265
156.0800    1179
156.1600    1093
156.2400     953
156.3200     995
156.4000     932
156.4800    1045
156.5600     950
156.6400     823
156.7200     816
156.8000     803
156.8800     774
156.9600     797
157.0400     677
157.1200     700
157.2000     653
157.2800     705
157.3600     657
157.4400     603
157.5200     602
157.6000     542
157.6800     643
157.7600     576
157.8400     596
157.9200     654
158.0000     548
158.0800     576
158.1600     492
158.2400     570
158.3200     458
158.4000     583
158.4800     413
158.5600     410
158.6400     552
158.7200     453
158.8000     475
158.8800     477
158.9600     407
159.0400     410
159.1200     407
159.2000     465
159.2800     391
159.3600     418
159.4400     488
159.5200     368
159.6000     433
159.6800     460
159.7600     415
159.8400     320
159.9200     355
160.0000     288
160.0800     420
160.1600     331
160.2400     416
160.3200     346
160.4000     404
160.4800     314
160.5600     464
160.6400     277
160.7200     354
160.8000     336
160.8800     333
160.9600     380
161.0400     331
161.1200     302
161.2000     338
161.2800     325
161.3600     402
161.4400     320
161.5200     319
161.6000     227
161.6800     342
161.7600     401
161.8400     211
161.9200     215
161.9800     242

File: LDA_sample_name_56789_Psi-0_20180623-122834.txt
138.0000     254
138.0800     267
138.1600     330
138.2400     288
138.3200     264
138.4000     180
138.4800     262
138.5600     296
138.6400     210
138.7200     241
138.8000     187
138.8800     259
138.9600     193
139.0400     246
139.1200     319
139.2000     218
139.2800     248
139.3600     319
139.4400     291
139.5200     193
139.6000     241
139.6800     205
139.7600     163
139.8400     291
139.9200     317
140.0000     301
140.0800     257
140.1600     280
140.2400     319
140.3200     309
140.4000     220
140.4800     191
140.5600     228
140.6400     170
140.7200     236
140.8000     145
140.8800     236
140.9600     314
141.0400     322
141.1200     287
141.2000     228
141.2800     225
141.3600     274
141.4400     309
141.5200     222
141.6000     221
141.6800     306
141.7600     282
141.8400     272
141.9200     276
142.0000     277
142.0800     258
142.1600     225
142.2400     247
142.3200     288
142.4000     291
142.4800     203
142.5600     350
142.6400     313
142.7200     322
142.8000     272
142.8800     363
142.9600     316
143.0400     339
143.1200     324
143.2000     275
143.2800     382
143.3600     280
143.4400     293
143.5200     293
143.6000     326
143.6800     216
143.7600     261
143.8400     323
143.9200     343
144.0000     271
144.0800     286
144.1600     345
144.2400     365
144.3200     356
144.4000     275
144.4800     336
144.5600     315
144.6400     326
144.7200     318
144.8000     307
144.8800     319
144.9600     257
145.0400     307
145.1200     289
145.2000     257
145.2800     308
145.3600     387
145.4400     338
145.5200     286
145.6000     329
145.6800     316
145.7600     299
145.8400     279
145.9200     302
146.0000     308
146.0800     346
146.1600     406
146.2400     220
146.3200     274
146.4000     270
146.4800     381
146.5600     285
146.6400     237
146.7200     263
146.8000     355
146.8800     291
146.9600     317
147.0400     387
147.1200     263
147.2000     341
147.2800     343
147.3600     328
147.4400     403
147.5200     307
147.6000     442
147.6800     345
147.7600     343
147.8400     405
147.9200     381
148.0000     396
148.0800     320
148.1600     366
148.2400     443
148.3200     500
148.4000     389
148.4800     368
148.5600     465
148.6400     444
148.7200     433
148.8000     459
148.8800     376
148.9600     464
149.0400     387
149.1200     366
149.2000     438
149.2800     449
149.3600     473
149.4400     409
149.5200     405
149.6000     379
149.6800     452
149.7600     445
149.8400     475
149.9200     363
150.0000     444
150.0800     433
150.1600     434
150.2400     448
150.3200     520
150.4000     480
150.4800     457
150.5600     541
150.6400     589
150.7200     543
150.8000     474
150.8800     480
150.9600     588
151.0400     626
151.1200     643
151.2000     760
151.2800     700
151.3600     638
151.4400     761
151.5200     646
151.6000     745
151.6800     855
151.7600     767
151.8400     748
151.9200     888
152.0000    1014
152.0800     925
152.1600    1088
152.2400    1066
152.3200    1202
152.4000    1168
152.4800    1162
152.5600    1345
152.6400    1504
152.7200    1526
152.8000    1646
152.8800    1827
152.9600    1843
153.0400    1791
153.1200    2003
153.2000    2217
153.2800    2116
153.3600    2255
153.4400    2214
153.5200    2338
153.6000    2445
153.6800    2448
153.7600    2524
153.8400    2489
153.9200    2591
154.0000    2583
154.0800    2370
154.1600    2858
154.2400    2797
154.3200    2569
154.4000    2731
154.4800    2425
154.5600    2510
154.6400    2313
154.7200    2186
154.8000    2192
154.8800    2343
154.9600    2290
155.0400    2007
155.1200    1912
155.2000    1804
155.2800    1723
155.3600    1781
155.4400    1678
155.5200    1518
155.6000    1454
155.6800    1450
155.7600    1477
155.8400    1387
155.9200    1324
156.0000    1210
156.0800    1159
156.1600    1107
156.2400    1133
156.3200     934
156.4000    1026
156.4800    1066
156.5600     877
156.6400     974
156.7200     768
156.8000     704
156.8800     755
156.9600     826
157.0400     816
157.1200     710
157.2000     786
157.2800     728
157.3600     694
157.4400     720
157.5200     574
157.6000     556
157.6800     674
157.7600     644
157.8400     649
157.9200     649
158.0000     665
158.0800     564
158.1600     411
158.2400     491
158.3200     497
158.4000     610
158.4800     508
158.5600     568
158.6400     427
158.7200     466
158.8000     377
158.8800     563
158.9600     462
159.0400     399
159.1200     354
159.2000     464
159.2800     454
159.3600     427
159.4400     478
159.5200     405
159.6000     400
159.6800     339
159.7600     435
159.8400     354
159.9200     351
160.0000     510
160.0800     372
160.1600     373
160.2400     390
160.3200     411
160.4000     323
160.4800     399
160.5600     380
160.6400     321
160.7200     290
160.8000     278
160.8800     320
160.9600     310
161.0400     315
161.1200     304
161.2000     339
161.2800     383
161.3600     412
161.4400     358
161.5200     338
161.6000     317
161.6800     273
161.7600     305
161.8400     233
161.9200     264
161.9800     308